;*******************************************************************************************
; Molecule      :  BrO                                                                      
; File type     :  Absorption cross section                                                 
; Temperature   :  223 +- 3 Kelvin                                                          
; Instrument    :  FTS BRUKER IFS 120 HR                                                    
; Experiment    :  Flash Photolysis of Br2/O3, observed by Time Resolved Rapid Scan FTS     
; X-Axis        :  Wavelength in Air [nm]                                               
; X-Resolution  :  approx. 0.05 nm (FWHM)                                                   
; Y-Axis        :  BrO absorption cross section [cm^2 / molecule]                           
; Reference     :  O. C. Fleischmann, J. P. Burrows, University of Bremen, 27.10.2000       
;*******************************************************************************************
  300.6701     1.1070e-018
  300.6832     3.1340e-018
  300.6963     1.8490e-018
  300.7094    -2.9760e-018
  300.7225    -4.0310e-018
  300.7356     7.9200e-019
  300.7486     6.8160e-018
  300.7617     7.3220e-018
  300.7748     1.2240e-018
  300.7879     3.6620e-020
  300.8010     7.1520e-019
  300.8141     2.5860e-018
  300.8272     2.7150e-018
  300.8403     3.4910e-018
  300.8534     5.2700e-018
  300.8665     4.0130e-018
  300.8796     4.6430e-019
  300.8927    -1.4090e-018
  300.9058    -7.3870e-019
  300.9189     1.4890e-018
  300.9320     1.0420e-018
  300.9451     2.9820e-019
  300.9582     2.0680e-018
  300.9713     5.5870e-018
  300.9844     3.2830e-018
  300.9975    -1.9580e-018
  301.0106    -2.6340e-018
  301.0237    -4.7360e-019
  301.0368     1.2870e-018
  301.0499     2.3390e-018
  301.0630     3.2620e-018
  301.0762     5.1830e-018
  301.0893     3.2430e-018
  301.1024     3.3930e-018
  301.1155     4.8500e-018
  301.1286     7.0790e-018
  301.1418     7.0120e-018
  301.1549     2.9080e-018
  301.1680     3.2800e-018
  301.1811     3.2910e-018
  301.1942     6.4660e-019
  301.2074    -2.4450e-019
  301.2205     9.5130e-019
  301.2336     1.1180e-018
  301.2468    -1.5980e-019
  301.2599    -8.7700e-019
  301.2730     1.4380e-018
  301.2862     4.1660e-018
  301.2993     3.2890e-018
  301.3124     2.2260e-018
  301.3256     3.0830e-018
  301.3387     2.5450e-018
  301.3518    -2.5100e-019
  301.3650    -1.0050e-018
  301.3781     1.5510e-018
  301.3913     2.0930e-018
  301.4044    -3.7300e-019
  301.4176    -9.7560e-019
  301.4307     2.3840e-018
  301.4438     4.6470e-018
  301.4570     3.6360e-018
  301.4701     3.1290e-018
  301.4833     3.6590e-018
  301.4964     3.5380e-018
  301.5096     2.0370e-018
  301.5227     6.2730e-019
  301.5359     5.8190e-019
  301.5490     3.9530e-019
  301.5622     1.8620e-018
  301.5754     3.1570e-018
  301.5885     6.3540e-018
  301.6017     9.8720e-018
  301.6149     6.6550e-018
  301.6280     3.5750e-018
  301.6412     3.7150e-018
  301.6543     2.3120e-018
  301.6675     1.1390e-018
  301.6807     2.6300e-018
  301.6938     4.4800e-018
  301.7070     5.7910e-018
  301.7202     5.1000e-018
  301.7334     7.1620e-018
  301.7465     7.6020e-018
  301.7597     5.9540e-018
  301.7729     5.0430e-018
  301.7860     7.1780e-018
  301.7992     7.1170e-018
  301.8124     5.0470e-018
  301.8256     3.3930e-018
  301.8388     5.6020e-018
  301.8519     8.8390e-018
  301.8651     7.2930e-018
  301.8783     3.3600e-018
  301.8915     2.9120e-018
  301.9047     3.1570e-018
  301.9179     1.9270e-018
  301.9311     2.5780e-019
  301.9442     1.6910e-018
  301.9575     4.1830e-018
  301.9706     4.0820e-018
  301.9838     3.9290e-018
  301.9970     2.7740e-018
  302.0102     5.2740e-018
  302.0234     5.9270e-018
  302.0366     4.9890e-018
  302.0498     5.6960e-018
  302.0630     5.4040e-018
  302.0762     3.6560e-018
  302.0894     7.6850e-019
  302.1026     1.5110e-018
  302.1158     2.4410e-018
  302.1290     8.0790e-019
  302.1422     1.4840e-019
  302.1555     2.0330e-018
  302.1687     4.9830e-018
  302.1819     4.8580e-018
  302.1951     3.2580e-018
  302.2083     3.9090e-018
  302.2215     4.6910e-018
  302.2347     5.2610e-018
  302.2479     4.6110e-018
  302.2612     3.2370e-018
  302.2744     2.9570e-018
  302.2876     2.1980e-018
  302.3008     8.1820e-019
  302.3141     9.5870e-019
  302.3273     1.1350e-018
  302.3405     9.8510e-019
  302.3537     8.9980e-019
  302.3670     2.3490e-018
  302.3802     3.3940e-018
  302.3934     2.8410e-018
  302.4067     2.0280e-018
  302.4199     1.3060e-018
  302.4331     1.4510e-018
  302.4463     2.1900e-018
  302.4596     1.8780e-018
  302.4728     2.6320e-018
  302.4860     9.3770e-019
  302.4993     1.7880e-019
  302.5125     3.9170e-019
  302.5258     1.1840e-018
  302.5390     2.0550e-018
  302.5523     3.5180e-018
  302.5655     3.6770e-018
  302.5787     2.4060e-018
  302.5920     1.2530e-018
  302.6053     1.6430e-018
  302.6185     2.9080e-018
  302.6317     3.4030e-018
  302.6450     2.0660e-018
  302.6583     1.2220e-018
  302.6715     1.7400e-018
  302.6847     2.8910e-018
  302.6980     3.9970e-018
  302.7113     3.9220e-018
  302.7245     2.1900e-018
  302.7378     6.0430e-019
  302.7511     9.9490e-019
  302.7643     2.3760e-018
  302.7776     3.7600e-018
  302.7908     1.2610e-018
  302.8041    -1.1460e-018
  302.8174    -1.8830e-018
  302.8306    -1.4440e-018
  302.8439    -3.9470e-019
  302.8572    -7.2930e-019
  302.8704     3.1990e-019
  302.8837     4.6270e-020
  302.8970    -1.4520e-018
  302.9103    -1.0050e-018
  302.9235     7.6040e-019
  302.9368     2.9490e-018
  302.9501     2.2240e-018
  302.9634     1.4230e-021
  302.9767    -5.8680e-019
  302.9899    -1.1620e-018
  303.0032    -2.1570e-018
  303.0165    -1.8670e-018
  303.0298    -8.8340e-020
  303.0431     1.5590e-018
  303.0564     7.9910e-019
  303.0697     7.9350e-019
  303.0829     7.7150e-019
  303.0962     5.8800e-019
  303.1095     1.7090e-019
  303.1228    -9.6410e-019
  303.1361     2.9480e-019
  303.1494     2.6480e-018
  303.1627     2.9030e-018
  303.1760     2.2800e-018
  303.1893     7.2710e-019
  303.2026     1.1040e-019
  303.2159    -2.7590e-019
  303.2292    -6.7530e-019
  303.2425    -2.5580e-019
  303.2558    -4.8930e-019
  303.2691     7.2230e-022
  303.2824     1.0880e-018
  303.2957     2.7230e-018
  303.3091     2.4320e-018
  303.3224     6.1760e-019
  303.3357     3.0660e-019
  303.3490     1.2880e-018
  303.3623     2.7130e-018
  303.3756     2.5630e-018
  303.3889     1.5970e-018
  303.4023     8.7300e-019
  303.4156     1.7710e-018
  303.4289     2.9580e-018
  303.4422     2.7840e-018
  303.4555     2.3710e-018
  303.4689     2.2210e-018
  303.4822     2.5660e-018
  303.4955     1.4470e-018
  303.5088    -7.5970e-019
  303.5222    -9.4270e-019
  303.5355     1.1930e-018
  303.5488     3.4150e-018
  303.5622     3.2660e-018
  303.5755     1.3300e-018
  303.5888     4.5410e-019
  303.6022     9.9020e-019
  303.6155     3.4300e-020
  303.6288     2.6860e-019
  303.6422    -3.2330e-019
  303.6555    -7.8960e-019
  303.6689     5.9450e-019
  303.6822     2.2430e-018
  303.6955     3.6360e-018
  303.7089     9.3380e-019
  303.7222    -1.1910e-018
  303.7356    -3.9090e-019
  303.7489     3.1730e-018
  303.7623     3.1310e-018
  303.7756    -2.2770e-019
  303.7890    -1.3390e-018
  303.8024     1.6660e-018
  303.8157     3.6890e-018
  303.8290     1.8340e-018
  303.8424     2.8260e-019
  303.8558     1.4220e-018
  303.8691     4.3580e-018
  303.8825     3.3380e-018
  303.8958     6.9760e-019
  303.9092     4.8770e-019
  303.9226     2.6420e-018
  303.9359     4.5530e-018
  303.9493     4.2360e-018
  303.9627     2.1990e-018
  303.9760     7.1770e-019
  303.9894     1.8400e-018
  304.0028     2.5880e-018
  304.0161     1.4730e-018
  304.0295     1.3000e-019
  304.0429     1.3380e-018
  304.0563     4.9380e-018
  304.0696     5.5540e-018
  304.0830     3.3360e-018
  304.0964     1.5280e-018
  304.1098     1.7070e-018
  304.1232     2.7670e-018
  304.1365     3.0150e-018
  304.1499     3.0890e-018
  304.1633     5.6970e-018
  304.1767     7.7670e-018
  304.1901     6.8150e-018
  304.2035     4.4710e-018
  304.2169     5.0250e-018
  304.2303     7.7120e-018
  304.2436     7.3880e-018
  304.2570     5.3960e-018
  304.2704     4.9820e-018
  304.2838     6.1780e-018
  304.2972     7.3810e-018
  304.3106     6.9010e-018
  304.3240     6.7630e-018
  304.3374     6.5790e-018
  304.3508     6.4330e-018
  304.3642     6.4470e-018
  304.3776     6.0030e-018
  304.3910     4.3080e-018
  304.4045     4.7740e-018
  304.4179     6.7630e-018
  304.4313     6.8030e-018
  304.4446     5.0360e-018
  304.4581     4.2060e-018
  304.4715     6.5300e-018
  304.4849     8.0030e-018
  304.4983     7.4880e-018
  304.5117     6.5040e-018
  304.5251     7.3800e-018
  304.5386     8.4310e-018
  304.5520     5.7410e-018
  304.5654     2.8390e-018
  304.5788     3.7960e-018
  304.5922     6.9520e-018
  304.6057     7.7990e-018
  304.6191     3.9640e-018
  304.6325     2.0250e-018
  304.6459     3.4380e-018
  304.6594     5.3450e-018
  304.6728     5.0120e-018
  304.6862     5.7900e-018
  304.6997     6.8710e-018
  304.7131     6.8410e-018
  304.7265     5.6620e-018
  304.7400     5.7140e-018
  304.7534     6.7870e-018
  304.7669     6.1370e-018
  304.7803     4.5740e-018
  304.7937     4.3880e-018
  304.8072     6.3920e-018
  304.8206     6.5300e-018
  304.8341     3.1340e-018
  304.8475     6.3930e-019
  304.8610     2.2640e-018
  304.8744     6.3520e-018
  304.8878     7.9230e-018
  304.9013     4.9930e-018
  304.9148     1.6880e-018
  304.9282     5.3970e-019
  304.9416     1.6810e-018
  304.9551     3.8720e-018
  304.9686     4.8740e-018
  304.9820     3.3170e-018
  304.9955     2.6530e-018
  305.0089     2.7810e-018
  305.0224     1.7790e-018
  305.0359     1.2290e-018
  305.0493     1.1140e-018
  305.0628     2.4040e-018
  305.0763     3.9400e-018
  305.0897     4.1870e-018
  305.1032     4.1600e-018
  305.1167     4.4770e-018
  305.1301     3.6850e-018
  305.1436     2.2670e-018
  305.1571     1.9700e-018
  305.1706     1.8270e-018
  305.1840     1.4930e-018
  305.1975     8.0350e-019
  305.2110     8.7360e-019
  305.2245     2.3940e-018
  305.2379     4.4100e-018
  305.2514     3.0640e-018
  305.2649     6.3310e-019
  305.2784    -1.9450e-020
  305.2919     1.2210e-018
  305.3054     2.5590e-018
  305.3188     2.5310e-018
  305.3323     2.4020e-018
  305.3458     2.4570e-018
  305.3593     2.0280e-018
  305.3728     1.5990e-018
  305.3863     1.2980e-018
  305.3998     9.5180e-019
  305.4133     3.0540e-019
  305.4268    -6.1970e-019
  305.4403     5.0320e-020
  305.4538     9.1900e-019
  305.4673     1.6670e-018
  305.4808     1.5790e-018
  305.4943     1.8490e-018
  305.5078     2.4730e-018
  305.5213     1.9390e-018
  305.5348     6.3060e-019
  305.5483     4.2810e-019
  305.5618     1.4230e-018
  305.5753     1.8910e-018
  305.5888     1.7690e-018
  305.6023     1.2640e-018
  305.6159     7.3150e-019
  305.6294     2.7070e-019
  305.6429     5.0750e-019
  305.6564     9.3840e-019
  305.6699     1.5990e-018
  305.6834     2.0510e-018
  305.6970     2.0560e-018
  305.7105     2.2670e-018
  305.7240     2.2620e-018
  305.7375     2.9390e-018
  305.7510     2.9220e-018
  305.7646     3.0270e-018
  305.7781     2.1360e-018
  305.7916     2.0490e-018
  305.8051     2.6640e-018
  305.8187     2.2600e-018
  305.8322     2.7780e-019
  305.8458    -1.7400e-018
  305.8593    -1.0860e-018
  305.8728     2.1310e-018
  305.8864     4.2190e-018
  305.8999     3.1150e-018
  305.9134     2.8180e-018
  305.9270     3.9980e-018
  305.9405     4.7920e-018
  305.9541     2.7930e-018
  305.9676     8.0070e-019
  305.9811     1.6790e-019
  305.9947     2.0580e-019
  306.0082     5.7230e-019
  306.0218     1.4610e-018
  306.0354     2.7860e-018
  306.0489     2.3570e-018
  306.0625     2.8500e-019
  306.0760    -4.4890e-019
  306.0896     1.4540e-018
  306.1031     2.6620e-018
  306.1167     9.3780e-019
  306.1302    -1.0130e-018
  306.1438    -4.1790e-019
  306.1573     1.0260e-018
  306.1709     1.1170e-018
  306.1845    -5.3300e-019
  306.1980    -4.1490e-019
  306.2116     1.2410e-018
  306.2252     1.3730e-018
  306.2388    -4.9770e-019
  306.2523    -5.9390e-019
  306.2659     1.6720e-018
  306.2794     4.2580e-018
  306.2930     4.5300e-018
  306.3066     2.3890e-018
  306.3202     1.1300e-018
  306.3338     1.2070e-018
  306.3473     1.2620e-018
  306.3609     8.3750e-019
  306.3745     7.4920e-019
  306.3881     1.4450e-018
  306.4017     2.6310e-018
  306.4152     3.2990e-018
  306.4288     3.0760e-018
  306.4424     2.8380e-018
  306.4560     2.5940e-018
  306.4696     2.1610e-018
  306.4832     2.1630e-018
  306.4968     1.7140e-018
  306.5104     1.2900e-018
  306.5240     1.4010e-018
  306.5375     2.2200e-018
  306.5511     1.5910e-018
  306.5647    -7.3760e-020
  306.5783    -1.0770e-018
  306.5919     4.0220e-019
  306.6055     3.0950e-018
  306.6191     3.1010e-018
  306.6327     7.7160e-019
  306.6463     4.0140e-019
  306.6599     2.0970e-018
  306.6736     2.2380e-018
  306.6872    -3.0500e-019
  306.7008    -1.2990e-018
  306.7144     1.1660e-018
  306.7280     4.3880e-018
  306.7416     3.5050e-018
  306.7552     1.5220e-018
  306.7688     1.3180e-018
  306.7825     2.8370e-018
  306.7961     3.1460e-018
  306.8097     2.0850e-018
  306.8233     2.1980e-018
  306.8369     2.8920e-018
  306.8505     3.4000e-018
  306.8642     3.5430e-018
  306.8778     3.6720e-018
  306.8914     4.7210e-018
  306.9051     4.8080e-018
  306.9187     3.5940e-018
  306.9323     2.5410e-018
  306.9459     3.1960e-018
  306.9596     4.2780e-018
  306.9732     5.0320e-018
  306.9868     4.9290e-018
  307.0005     5.1550e-018
  307.0141     6.2060e-018
  307.0277     6.4980e-018
  307.0414     6.1080e-018
  307.0550     5.2520e-018
  307.0687     5.5590e-018
  307.0823     7.0500e-018
  307.0960     7.9980e-018
  307.1096     6.8160e-018
  307.1232     5.4210e-018
  307.1369     6.1250e-018
  307.1505     7.8330e-018
  307.1642     8.2050e-018
  307.1778     7.2650e-018
  307.1915     6.7360e-018
  307.2052     6.9740e-018
  307.2188     7.0280e-018
  307.2325     6.7360e-018
  307.2461     6.9500e-018
  307.2598     8.3500e-018
  307.2734     8.9160e-018
  307.2871     7.4890e-018
  307.3008     6.7860e-018
  307.3144     6.7090e-018
  307.3281     7.4820e-018
  307.3418     8.4940e-018
  307.3554     9.5120e-018
  307.3691     1.0880e-017
  307.3828     1.0600e-017
  307.3964     8.5610e-018
  307.4101     6.6910e-018
  307.4238     6.4270e-018
  307.4375     6.3820e-018
  307.4511     6.2540e-018
  307.4648     6.7240e-018
  307.4785     8.0750e-018
  307.4922     8.5710e-018
  307.5058     8.2470e-018
  307.5195     7.9190e-018
  307.5332     8.2860e-018
  307.5469     8.7860e-018
  307.5606     7.6830e-018
  307.5743     6.4170e-018
  307.5880     6.2720e-018
  307.6017     7.4550e-018
  307.6153     7.3160e-018
  307.6290     5.8720e-018
  307.6427     5.1380e-018
  307.6564     6.2990e-018
  307.6701     8.4960e-018
  307.6838     7.8870e-018
  307.6975     5.4130e-018
  307.7112     4.4360e-018
  307.7249     5.4900e-018
  307.7386     6.1920e-018
  307.7523     5.0660e-018
  307.7660     4.1710e-018
  307.7797     4.7400e-018
  307.7934     5.4260e-018
  307.8071     6.0030e-018
  307.8208     6.7570e-018
  307.8346     7.4540e-018
  307.8483     7.0460e-018
  307.8620     5.7350e-018
  307.8757     4.5680e-018
  307.8894     4.2890e-018
  307.9031     4.4430e-018
  307.9168     4.4530e-018
  307.9306     4.5920e-018
  307.9443     4.5260e-018
  307.9580     4.0730e-018
  307.9717     3.2060e-018
  307.9854     2.9350e-018
  307.9992     3.7440e-018
  308.0129     3.9150e-018
  308.0266     3.5280e-018
  308.0403     3.5130e-018
  308.0541     3.8740e-018
  308.0678     4.3890e-018
  308.0815     4.3560e-018
  308.0953     4.3290e-018
  308.1090     4.3120e-018
  308.1227     3.5900e-018
  308.1365     2.6270e-018
  308.1502     2.5620e-018
  308.1640     3.0840e-018
  308.1777     3.3580e-018
  308.1914     3.1310e-018
  308.2052     3.0990e-018
  308.2189     2.9450e-018
  308.2327     2.3700e-018
  308.2464     2.3250e-018
  308.2602     3.4480e-018
  308.2739     4.6640e-018
  308.2877     4.4380e-018
  308.3014     3.2670e-018
  308.3152     2.5260e-018
  308.3289     2.9050e-018
  308.3427     3.3240e-018
  308.3564     3.0030e-018
  308.3702     1.8960e-018
  308.3839     6.4330e-019
  308.3977    -4.2960e-022
  308.4115     8.1980e-019
  308.4252     1.9690e-018
  308.4390     2.0860e-018
  308.4528     1.3580e-018
  308.4665     1.2570e-018
  308.4803     2.1520e-018
  308.4941     3.1100e-018
  308.5078     3.2380e-018
  308.5216     2.7760e-018
  308.5354     2.2910e-018
  308.5491     1.1960e-018
  308.5629     3.0330e-019
  308.5767     9.0220e-019
  308.5905     2.6220e-018
  308.6043     2.8670e-018
  308.6180     1.4640e-018
  308.6318     6.0700e-019
  308.6456     1.1950e-018
  308.6594     1.6370e-018
  308.6732     1.1270e-018
  308.6870     9.4070e-019
  308.7007     2.2940e-018
  308.7145     3.6410e-018
  308.7283     3.1250e-018
  308.7421     2.3960e-018
  308.7559     2.4050e-018
  308.7697     2.2130e-018
  308.7835     1.4990e-018
  308.7973     1.4800e-018
  308.8111     2.1920e-018
  308.8249     2.9260e-018
  308.8387     2.6110e-018
  308.8525     2.1590e-018
  308.8663     2.2790e-018
  308.8801     1.9020e-018
  308.8939     6.0810e-019
  308.9077    -6.3250e-020
  308.9215     1.1620e-018
  308.9353     3.0460e-018
  308.9491     3.0150e-018
  308.9629     1.7480e-018
  308.9767     9.0620e-019
  308.9906     5.8660e-019
  309.0044     1.7310e-019
  309.0182     2.7280e-019
  309.0320     1.8560e-018
  309.0458     2.7410e-018
  309.0596     1.6350e-018
  309.0735     4.0600e-019
  309.0873     1.0990e-018
  309.1011     2.8730e-018
  309.1149     2.8450e-018
  309.1288     1.5850e-018
  309.1426     9.2580e-019
  309.1564     9.3580e-019
  309.1702     1.2350e-018
  309.1841     6.0280e-019
  309.1979     5.2880e-019
  309.2117     1.1380e-018
  309.2256     1.7060e-018
  309.2394     2.2380e-018
  309.2532     2.6800e-018
  309.2671     2.3770e-018
  309.2809     1.0870e-018
  309.2947     8.0570e-019
  309.3086     1.8480e-018
  309.3224     2.5320e-018
  309.3363     1.7850e-018
  309.3501     1.1970e-020
  309.3640    -8.8370e-019
  309.3778    -3.5170e-019
  309.3917     5.6230e-019
  309.4055     1.3480e-018
  309.4194     1.5740e-018
  309.4332     1.0530e-018
  309.4471     4.2950e-019
  309.4609     1.3420e-020
  309.4748     1.1840e-019
  309.4887     4.3340e-019
  309.5025     1.1770e-018
  309.5164     2.1620e-018
  309.5302     3.0120e-018
  309.5441     2.7190e-018
  309.5579     1.2010e-018
  309.5718     4.1300e-019
  309.5857     9.6430e-019
  309.5995     1.7570e-018
  309.6134     1.3370e-018
  309.6273    -8.3300e-020
  309.6412    -5.2590e-019
  309.6550     6.3290e-019
  309.6689     2.2040e-018
  309.6828     2.4900e-018
  309.6967     1.4640e-018
  309.7105     7.8970e-019
  309.7244     1.9230e-018
  309.7383     3.5900e-018
  309.7522     2.7100e-018
  309.7660     7.8440e-019
  309.7799     2.7900e-019
  309.7938     2.0460e-018
  309.8077     3.7110e-018
  309.8216     2.0630e-018
  309.8355    -4.0410e-019
  309.8494    -2.8310e-019
  309.8633     1.8090e-018
  309.8772     3.2860e-018
  309.8910     2.9990e-018
  309.9050     2.8190e-018
  309.9188     3.0520e-018
  309.9327     2.8130e-018
  309.9466     2.1760e-018
  309.9605     1.9930e-018
  309.9744     2.6780e-018
  309.9883     3.3000e-018
  310.0022     3.4650e-018
  310.0162     3.7610e-018
  310.0300     4.5480e-018
  310.0440     4.7410e-018
  310.0579     4.7930e-018
  310.0718     5.3690e-018
  310.0857     5.8990e-018
  310.0996     5.9350e-018
  310.1135     6.0880e-018
  310.1274     7.1670e-018
  310.1414     8.1300e-018
  310.1553     8.4390e-018
  310.1692     8.2640e-018
  310.1831     8.3570e-018
  310.1970     8.5450e-018
  310.2109     8.0150e-018
  310.2249     8.0870e-018
  310.2388     9.4290e-018
  310.2527     1.0030e-017
  310.2667     9.1780e-018
  310.2806     8.1140e-018
  310.2945     7.9980e-018
  310.3084     8.7140e-018
  310.3224     9.3900e-018
  310.3363     9.8550e-018
  310.3503     1.0580e-017
  310.3642     1.0480e-017
  310.3781     9.0530e-018
  310.3920     7.9990e-018
  310.4060     8.5330e-018
  310.4199     9.3520e-018
  310.4339     8.8640e-018
  310.4478     7.8180e-018
  310.4618     8.0440e-018
  310.4757     9.1220e-018
  310.4897     8.8500e-018
  310.5036     7.4590e-018
  310.5176     7.1460e-018
  310.5315     8.1090e-018
  310.5455     9.4050e-018
  310.5594     9.9590e-018
  310.5734     1.0630e-017
  310.5873     1.0430e-017
  310.6013     9.0660e-018
  310.6152     7.8860e-018
  310.6292     7.8240e-018
  310.6432     8.3960e-018
  310.6571     8.9070e-018
  310.6711     8.9130e-018
  310.6850     8.7140e-018
  310.6990     8.4020e-018
  310.7130     7.8900e-018
  310.7270     7.8210e-018
  310.7409     8.2290e-018
  310.7549     8.0070e-018
  310.7689     6.4250e-018
  310.7828     4.9850e-018
  310.7968     5.2830e-018
  310.8108     6.8910e-018
  310.8248     7.2930e-018
  310.8387     6.3270e-018
  310.8527     6.0860e-018
  310.8667     6.8130e-018
  310.8807     6.7390e-018
  310.8947     5.5990e-018
  310.9087     5.3880e-018
  310.9227     6.1610e-018
  310.9366     6.2230e-018
  310.9506     4.7950e-018
  310.9646     3.3640e-018
  310.9786     3.7270e-018
  310.9926     4.9910e-018
  311.0066     5.2970e-018
  311.0206     4.6350e-018
  311.0346     4.3980e-018
  311.0486     4.9280e-018
  311.0626     5.3140e-018
  311.0766     4.9320e-018
  311.0906     4.5280e-018
  311.1046     4.8490e-018
  311.1186     5.4850e-018
  311.1326     5.2180e-018
  311.1466     4.3420e-018
  311.1606     3.8970e-018
  311.1746     4.0280e-018
  311.1886     4.2050e-018
  311.2026     3.7100e-018
  311.2167     3.0830e-018
  311.2307     3.3570e-018
  311.2447     4.3090e-018
  311.2587     4.2310e-018
  311.2727     3.5160e-018
  311.2867     3.0370e-018
  311.3008     3.4460e-018
  311.3148     4.1830e-018
  311.3288     3.7290e-018
  311.3428     2.5710e-018
  311.3568     2.3400e-018
  311.3709     3.3760e-018
  311.3849     4.2020e-018
  311.3989     3.9180e-018
  311.4130     3.7420e-018
  311.4270     4.3970e-018
  311.4410     5.3530e-018
  311.4551     5.0130e-018
  311.4691     3.6980e-018
  311.4831     3.4270e-018
  311.4972     3.9600e-018
  311.5112     3.9280e-018
  311.5252     3.4150e-018
  311.5393     3.0610e-018
  311.5533     2.9820e-018
  311.5674     3.1310e-018
  311.5814     3.0200e-018
  311.5955     2.9650e-018
  311.6095     3.0950e-018
  311.6236     2.8170e-018
  311.6376     2.4490e-018
  311.6517     2.6210e-018
  311.6657     3.1180e-018
  311.6798     3.8750e-018
  311.6938     4.4000e-018
  311.7079     4.2320e-018
  311.7220     2.9610e-018
  311.7360     1.7660e-018
  311.7501     1.7600e-018
  311.7641     2.2500e-018
  311.7782     2.1380e-018
  311.7923     1.2930e-018
  311.8063     1.1070e-018
  311.8204     2.0450e-018
  311.8345     2.7660e-018
  311.8485     2.2600e-018
  311.8626     1.5530e-018
  311.8767     1.8600e-018
  311.8907     2.1810e-018
  311.9048     1.4300e-018
  311.9189     5.7960e-019
  311.9330     1.0680e-018
  311.9470     2.5020e-018
  311.9611     2.6720e-018
  311.9752     1.3430e-018
  311.9893     1.4750e-019
  312.0034     2.0380e-019
  312.0175     9.1810e-019
  312.0316     1.4410e-018
  312.0456     1.5720e-018
  312.0597     1.4390e-018
  312.0738     1.5680e-018
  312.0879     1.9140e-018
  312.1020     1.9340e-018
  312.1161     1.5120e-018
  312.1302     1.1470e-018
  312.1443     1.1920e-018
  312.1584     1.5670e-018
  312.1725     1.8770e-018
  312.1866     2.2490e-018
  312.2007     2.4560e-018
  312.2148     2.2570e-018
  312.2289     1.5560e-018
  312.2430     1.2850e-018
  312.2571     2.0660e-018
  312.2712     2.4660e-018
  312.2853     1.9110e-018
  312.2994     1.2380e-018
  312.3135     1.3920e-018
  312.3277     1.7120e-018
  312.3418     1.4530e-018
  312.3559     1.0880e-018
  312.3700     1.4080e-018
  312.3841     1.6110e-018
  312.3982     1.1120e-018
  312.4124     4.9700e-019
  312.4265     6.1360e-019
  312.4406     1.0210e-018
  312.4547     9.5160e-019
  312.4689     7.5820e-019
  312.4830     1.0550e-018
  312.4971     1.2130e-018
  312.5112     6.5480e-019
  312.5254     1.0280e-019
  312.5395     2.7420e-019
  312.5536     6.7600e-019
  312.5678     6.3140e-019
  312.5819     4.5660e-019
  312.5961     7.5950e-019
  312.6102     1.2790e-018
  312.6243     1.0910e-018
  312.6385     6.2240e-019
  312.6526     3.7530e-019
  312.6668     3.5450e-019
  312.6809     2.5540e-019
  312.6951     8.7210e-020
  312.7092     3.2550e-019
  312.7233     9.0330e-019
  312.7375     1.3590e-018
  312.7516     1.7200e-018
  312.7658     1.2990e-018
  312.7799     9.6300e-020
  312.7941    -1.1020e-019
  312.8083     1.2010e-018
  312.8224     2.6030e-018
  312.8366     2.0890e-018
  312.8507     5.6950e-019
  312.8649     1.7530e-019
  312.8791     7.8590e-019
  312.8932     8.3520e-019
  312.9074     3.7960e-019
  312.9215     8.0300e-019
  312.9357     2.1110e-018
  312.9499     2.2700e-018
  312.9641     1.0480e-018
  312.9782     8.6930e-019
  312.9924     1.4770e-018
  313.0066     1.4520e-018
  313.0208     4.2730e-019
  313.0349     9.2770e-020
  313.0491     1.0540e-018
  313.0633     1.8500e-018
  313.0775     1.4640e-018
  313.0917     7.9300e-019
  313.1058     8.2130e-019
  313.1200     1.4210e-018
  313.1342     1.7900e-018
  313.1484     1.9370e-018
  313.1626     2.2570e-018
  313.1768     2.7980e-018
  313.1910     3.5020e-018
  313.2052     3.5250e-018
  313.2193     2.8640e-018
  313.2335     2.4810e-018
  313.2477     3.5340e-018
  313.2619     5.5630e-018
  313.2761     6.4010e-018
  313.2903     5.1370e-018
  313.3045     3.9440e-018
  313.3187     4.7140e-018
  313.3329     6.8830e-018
  313.3472     8.3560e-018
  313.3614     8.2880e-018
  313.3756     8.2260e-018
  313.3898     9.1070e-018
  313.4040     9.4940e-018
  313.4182     9.0470e-018
  313.4324     8.3050e-018
  313.4466     8.5140e-018
  313.4608     9.5350e-018
  313.4751     1.0170e-017
  313.4893     9.8040e-018
  313.5035     9.7580e-018
  313.5177     1.0930e-017
  313.5319     1.2030e-017
  313.5462     1.1430e-017
  313.5604     1.0090e-017
  313.5746     1.0070e-017
  313.5888     1.1690e-017
  313.6031     1.2120e-017
  313.6173     9.9310e-018
  313.6315     8.1650e-018
  313.6458     8.9430e-018
  313.6600     1.1040e-017
  313.6742     1.1840e-017
  313.6885     1.1280e-017
  313.7027     1.0950e-017
  313.7169     1.0720e-017
  313.7312     9.9520e-018
  313.7454     9.1620e-018
  313.7597     9.2260e-018
  313.7739     1.0040e-017
  313.7882     1.0100e-017
  313.8024     9.4410e-018
  313.8166     9.1260e-018
  313.8309     9.4490e-018
  313.8452     9.5020e-018
  313.8594     9.3490e-018
  313.8736     9.1600e-018
  313.8879     9.2050e-018
  313.9022     8.8480e-018
  313.9164     8.5010e-018
  313.9307     8.5430e-018
  313.9449     8.7060e-018
  313.9592     8.3760e-018
  313.9735     7.7490e-018
  313.9877     7.5320e-018
  314.0020     7.7220e-018
  314.0162     7.9300e-018
  314.0305     7.7480e-018
  314.0448     7.3860e-018
  314.0591     7.2880e-018
  314.0733     7.4470e-018
  314.0876     7.7960e-018
  314.1019     8.3320e-018
  314.1161     8.0760e-018
  314.1304     7.4010e-018
  314.1447     7.1190e-018
  314.1590     7.2780e-018
  314.1733     7.2400e-018
  314.1876     6.9320e-018
  314.2018     6.8450e-018
  314.2161     7.2960e-018
  314.2304     7.7040e-018
  314.2447     7.3240e-018
  314.2590     6.7980e-018
  314.2733     6.7450e-018
  314.2875     7.0030e-018
  314.3018     7.0570e-018
  314.3161     6.6580e-018
  314.3304     6.0530e-018
  314.3447     5.6420e-018
  314.3590     5.4900e-018
  314.3733     5.7560e-018
  314.3876     5.8970e-018
  314.4019     5.7140e-018
  314.4162     5.6380e-018
  314.4305     5.7860e-018
  314.4448     5.6260e-018
  314.4591     5.0420e-018
  314.4734     4.8730e-018
  314.4878     5.6060e-018
  314.5021     6.2520e-018
  314.5164     5.3970e-018
  314.5307     4.1440e-018
  314.5450     4.2320e-018
  314.5593     5.5440e-018
  314.5736     6.1710e-018
  314.5879     5.3580e-018
  314.6023     4.5150e-018
  314.6166     4.6440e-018
  314.6309     4.9930e-018
  314.6452     4.5520e-018
  314.6596     3.9750e-018
  314.6739     3.8530e-018
  314.6882     4.0350e-018
  314.7025     3.9100e-018
  314.7169     3.7760e-018
  314.7312     4.0990e-018
  314.7455     4.4400e-018
  314.7599     4.3880e-018
  314.7742     3.9170e-018
  314.7885     3.3360e-018
  314.8029     3.0240e-018
  314.8172     3.0390e-018
  314.8316     3.5320e-018
  314.8459     4.0070e-018
  314.8602     3.6460e-018
  314.8746     2.8630e-018
  314.8889     2.6830e-018
  314.9033     3.3220e-018
  314.9176     3.7090e-018
  314.9320     3.3110e-018
  314.9463     2.9010e-018
  314.9607     2.8640e-018
  314.9750     2.7920e-018
  314.9894     2.4630e-018
  315.0037     2.2720e-018
  315.0181     2.8120e-018
  315.0325     3.5150e-018
  315.0468     3.6100e-018
  315.0612     3.4310e-018
  315.0756     3.6060e-018
  315.0899     3.5670e-018
  315.1043     2.7080e-018
  315.1186     1.8470e-018
  315.1330     1.9870e-018
  315.1474     2.9110e-018
  315.1617     3.3270e-018
  315.1761     2.7520e-018
  315.1905     1.8240e-018
  315.2049     1.3000e-018
  315.2192     1.3680e-018
  315.2336     1.9520e-018
  315.2480     2.3870e-018
  315.2624     2.2870e-018
  315.2768     1.9500e-018
  315.2911     1.9940e-018
  315.3055     2.2830e-018
  315.3199     2.3700e-018
  315.3343     2.1880e-018
  315.3487     2.3160e-018
  315.3631     2.8420e-018
  315.3775     3.1250e-018
  315.3918     2.7680e-018
  315.4062     2.1530e-018
  315.4206     1.9450e-018
  315.4350     2.0640e-018
  315.4494     2.2300e-018
  315.4638     2.3590e-018
  315.4782     2.2270e-018
  315.4926     1.7680e-018
  315.5070     1.6280e-018
  315.5214     2.1120e-018
  315.5358     2.3590e-018
  315.5502     1.7680e-018
  315.5646     1.1020e-018
  315.5790     1.4690e-018
  315.5935     2.3370e-018
  315.6079     2.1540e-018
  315.6223     1.0270e-018
  315.6367     5.9250e-019
  315.6511     1.3050e-018
  315.6655     1.7130e-018
  315.6799     1.2870e-018
  315.6944     9.9810e-019
  315.7088     1.5200e-018
  315.7232     1.9980e-018
  315.7376     1.5300e-018
  315.7521     9.0280e-019
  315.7665     1.1970e-018
  315.7809     1.9790e-018
  315.7953     1.9730e-018
  315.8098     1.3970e-018
  315.8242     9.4760e-019
  315.8386     1.1000e-018
  315.8530     1.7150e-018
  315.8675     2.2200e-018
  315.8819     2.2180e-018
  315.8964     1.5660e-018
  315.9108     1.0380e-018
  315.9252     1.2400e-018
  315.9397     1.9040e-018
  315.9541     1.8280e-018
  315.9686     8.3270e-019
  315.9830     1.8600e-019
  315.9975     5.8880e-019
  316.0119     1.3790e-018
  316.0264     1.4950e-018
  316.0408     1.0800e-018
  316.0553     9.3450e-019
  316.0697     1.0630e-018
  316.0842     1.0090e-018
  316.0986     1.0940e-018
  316.1131     1.3940e-018
  316.1275     1.4660e-018
  316.1420     1.0110e-018
  316.1564     6.1840e-019
  316.1709     1.0040e-018
  316.1854     1.7590e-018
  316.1998     1.9400e-018
  316.2143     1.4810e-018
  316.2288     1.2300e-018
  316.2433     1.5180e-018
  316.2577     1.6080e-018
  316.2722     1.2190e-018
  316.2867     9.3330e-019
  316.3011     1.3450e-018
  316.3156     2.1240e-018
  316.3301     2.1830e-018
  316.3446     1.4370e-018
  316.3591     8.5480e-019
  316.3735     8.5900e-019
  316.3880     9.7910e-019
  316.4025     5.4750e-019
  316.4170    -4.6450e-020
  316.4315     5.8250e-020
  316.4460     1.0880e-018
  316.4605     2.0090e-018
  316.4749     1.6390e-018
  316.4894     4.7960e-019
  316.5039    -2.4000e-019
  316.5184     1.3170e-019
  316.5329     1.0090e-018
  316.5474     1.4010e-018
  316.5619     9.4250e-019
  316.5764     2.8110e-019
  316.5909     1.9740e-019
  316.6054     6.9130e-019
  316.6199     8.8960e-019
  316.6344     4.1900e-019
  316.6489     1.2590e-020
  316.6634     7.9990e-021
  316.6779     3.5130e-019
  316.6924     6.0770e-019
  316.7070     6.6780e-019
  316.7215     7.0890e-019
  316.7360     6.3180e-019
  316.7505     3.3970e-019
  316.7650     1.7710e-019
  316.7795     3.9060e-019
  316.7941     7.0860e-019
  316.8086     1.0360e-018
  316.8231     1.4010e-018
  316.8376     1.8750e-018
  316.8521     2.5460e-018
  316.8667     3.5070e-018
  316.8812     4.9810e-018
  316.8957     6.8520e-018
  316.9103     8.6400e-018
  316.9248     9.8220e-018
  316.9393     1.0670e-017
  316.9539     1.1470e-017
  316.9684     1.2350e-017
  316.9829     1.3850e-017
  316.9975     1.5500e-017
  317.0120     1.6600e-017
  317.0265     1.6760e-017
  317.0411     1.6700e-017
  317.0556     1.6970e-017
  317.0702     1.6770e-017
  317.0847     1.5550e-017
  317.0993     1.4560e-017
  317.1138     1.5030e-017
  317.1284     1.6110e-017
  317.1429     1.5890e-017
  317.1575     1.4430e-017
  317.1720     1.3250e-017
  317.1866     1.2990e-017
  317.2011     1.3290e-017
  317.2157     1.3580e-017
  317.2303     1.3870e-017
  317.2448     1.3730e-017
  317.2594     1.3070e-017
  317.2739     1.2550e-017
  317.2885     1.2690e-017
  317.3031     1.3040e-017
  317.3176     1.2890e-017
  317.3322     1.2670e-017
  317.3468     1.2660e-017
  317.3614     1.2290e-017
  317.3759     1.1140e-017
  317.3905     1.0270e-017
  317.4051     1.0570e-017
  317.4197     1.1110e-017
  317.4342     1.0750e-017
  317.4488     9.9020e-018
  317.4634     9.7080e-018
  317.4780     1.0520e-017
  317.4926     1.1530e-017
  317.5071     1.1820e-017
  317.5217     1.0900e-017
  317.5363     9.4920e-018
  317.5509     8.9980e-018
  317.5655     9.2760e-018
  317.5801     9.3930e-018
  317.5947     8.4810e-018
  317.6093     7.8470e-018
  317.6239     8.6210e-018
  317.6385     9.7080e-018
  317.6531     9.4380e-018
  317.6677     8.1130e-018
  317.6823     7.7030e-018
  317.6969     8.0600e-018
  317.7115     7.6040e-018
  317.7261     6.7910e-018
  317.7407     7.0730e-018
  317.7553     8.0750e-018
  317.7699     7.8920e-018
  317.7845     6.8140e-018
  317.7991     6.7150e-018
  317.8137     7.6190e-018
  317.8284     7.7940e-018
  317.8430     7.0800e-018
  317.8576     6.7660e-018
  317.8722     7.1950e-018
  317.8868     6.6970e-018
  317.9014     5.3180e-018
  317.9161     5.1280e-018
  317.9307     6.2530e-018
  317.9453     6.7540e-018
  317.9599     5.7400e-018
  317.9746     4.7110e-018
  317.9892     4.9000e-018
  318.0038     5.4060e-018
  318.0185     5.2540e-018
  318.0331     4.8810e-018
  318.0477     5.0450e-018
  318.0624     5.3270e-018
  318.0770     4.8810e-018
  318.0916     4.1640e-018
  318.1063     4.0050e-018
  318.1209     4.3040e-018
  318.1356     4.6240e-018
  318.1502     4.5180e-018
  318.1649     4.2250e-018
  318.1795     4.1950e-018
  318.1941     4.3960e-018
  318.2088     4.1990e-018
  318.2234     3.7970e-018
  318.2381     3.8120e-018
  318.2528     4.4120e-018
  318.2674     4.6700e-018
  318.2821     3.9140e-018
  318.2967     3.1660e-018
  318.3114     3.3300e-018
  318.3260     3.9140e-018
  318.3407     3.8190e-018
  318.3554     3.3030e-018
  318.3700     3.4480e-018
  318.3847     4.0630e-018
  318.3993     4.1350e-018
  318.4140     3.5570e-018
  318.4287     3.0050e-018
  318.4434     2.5970e-018
  318.4581     2.2430e-018
  318.4727     2.4280e-018
  318.4874     3.1230e-018
  318.5021     3.4560e-018
  318.5168     2.8780e-018
  318.5314     2.3160e-018
  318.5461     2.5710e-018
  318.5608     2.8890e-018
  318.5755     2.4430e-018
  318.5901     1.9960e-018
  318.6048     2.3200e-018
  318.6195     2.6670e-018
  318.6342     2.2490e-018
  318.6489     1.6260e-018
  318.6636     1.8870e-018
  318.6783     2.5960e-018
  318.6930     2.6470e-018
  318.7077     2.1350e-018
  318.7224     2.1440e-018
  318.7371     2.7360e-018
  318.7518     3.1930e-018
  318.7665     3.1790e-018
  318.7812     2.8670e-018
  318.7959     2.5760e-018
  318.8106     2.4770e-018
  318.8253     2.5140e-018
  318.8400     2.2440e-018
  318.8547     1.8260e-018
  318.8694     1.9220e-018
  318.8841     2.5620e-018
  318.8988     2.9080e-018
  318.9135     2.5260e-018
  318.9283     2.3330e-018
  318.9430     2.7960e-018
  318.9577     3.0890e-018
  318.9724     2.5210e-018
  318.9872     1.9290e-018
  319.0019     2.2370e-018
  319.0166     2.5870e-018
  319.0313     1.8330e-018
  319.0460     8.4610e-019
  319.0608     1.0000e-018
  319.0755     1.9430e-018
  319.0902     2.1800e-018
  319.1050     1.6040e-018
  319.1197     1.3260e-018
  319.1344     1.7150e-018
  319.1492     2.1510e-018
  319.1639     2.2440e-018
  319.1787     2.1730e-018
  319.1934     1.8450e-018
  319.2081     1.4140e-018
  319.2229     1.5400e-018
  319.2376     2.2640e-018
  319.2524     2.6620e-018
  319.2671     2.1440e-018
  319.2819     1.5960e-018
  319.2966     1.6610e-018
  319.3113     2.0410e-018
  319.3261     2.2170e-018
  319.3409     2.4210e-018
  319.3556     2.8710e-018
  319.3704     2.9150e-018
  319.3851     2.0560e-018
  319.3999     1.2020e-018
  319.4146     1.1600e-018
  319.4294     1.7730e-018
  319.4442     2.3350e-018
  319.4589     2.2720e-018
  319.4737     1.6970e-018
  319.4885     1.2800e-018
  319.5032     1.3890e-018
  319.5180     1.8600e-018
  319.5328     2.0470e-018
  319.5476     1.7910e-018
  319.5623     1.7370e-018
  319.5771     2.0010e-018
  319.5919     1.9460e-018
  319.6067     1.4080e-018
  319.6214     1.1830e-018
  319.6362     1.6290e-018
  319.6510     1.9540e-018
  319.6658     1.7070e-018
  319.6806     1.5590e-018
  319.6954     2.1330e-018
  319.7102     2.5460e-018
  319.7249     2.0540e-018
  319.7397     1.4160e-018
  319.7545     1.4560e-018
  319.7693     1.7420e-018
  319.7841     1.6470e-018
  319.7989     1.6540e-018
  319.8137     2.2180e-018
  319.8285     2.4660e-018
  319.8433     1.6840e-018
  319.8581     7.7990e-019
  319.8729     1.0300e-018
  319.8877     1.9700e-018
  319.9025     2.3230e-018
  319.9173     1.9970e-018
  319.9321     2.0650e-018
  319.9469     2.5620e-018
  319.9618     2.4790e-018
  319.9766     1.7630e-018
  319.9914     1.5140e-018
  320.0062     2.2500e-018
  320.0210     2.8840e-018
  320.0358     2.3520e-018
  320.0507     1.4520e-018
  320.0655     1.4990e-018
  320.0803     2.2750e-018
  320.0951     2.8240e-018
  320.1099     2.7010e-018
  320.1248     2.6070e-018
  320.1396     2.7250e-018
  320.1544     2.6810e-018
  320.1693     2.5240e-018
  320.1841     2.5390e-018
  320.1989     2.7080e-018
  320.2138     2.4380e-018
  320.2286     1.8960e-018
  320.2434     2.0160e-018
  320.2583     2.6470e-018
  320.2731     2.7900e-018
  320.2880     2.1400e-018
  320.3028     1.7990e-018
  320.3176     2.2220e-018
  320.3325     2.5080e-018
  320.3473     1.9230e-018
  320.3622     1.5360e-018
  320.3770     1.9950e-018
  320.3919     2.5790e-018
  320.4067     2.5530e-018
  320.4216     2.3650e-018
  320.4364     2.7640e-018
  320.4513     3.0220e-018
  320.4662     2.4130e-018
  320.4810     1.7750e-018
  320.4959     2.0110e-018
  320.5107     2.6270e-018
  320.5256     2.7040e-018
  320.5405     2.7020e-018
  320.5553     3.0720e-018
  320.5702     3.2760e-018
  320.5851     2.9570e-018
  320.5999     2.6050e-018
  320.6148     2.9590e-018
  320.6297     3.5460e-018
  320.6445     3.6560e-018
  320.6594     3.3820e-018
  320.6743     3.1780e-018
  320.6892     3.2040e-018
  320.7041     3.4670e-018
  320.7190     4.2340e-018
  320.7338     5.1000e-018
  320.7487     5.3350e-018
  320.7636     5.2290e-018
  320.7785     5.8080e-018
  320.7934     7.2580e-018
  320.8083     8.6750e-018
  320.8232     9.5300e-018
  320.8380     1.0620e-017
  320.8529     1.2100e-017
  320.8678     1.3150e-017
  320.8827     1.3500e-017
  320.8976     1.4420e-017
  320.9125     1.6250e-017
  320.9274     1.7350e-017
  320.9423     1.6820e-017
  320.9572     1.6140e-017
  320.9721     1.6690e-017
  320.9871     1.7990e-017
  321.0020     1.8950e-017
  321.0169     1.9120e-017
  321.0318     1.8820e-017
  321.0467     1.8160e-017
  321.0616     1.7440e-017
  321.0765     1.7100e-017
  321.0914     1.6990e-017
  321.1064     1.6750e-017
  321.1213     1.6680e-017
  321.1362     1.6670e-017
  321.1511     1.6610e-017
  321.1660     1.6080e-017
  321.1810     1.5400e-017
  321.1959     1.5150e-017
  321.2108     1.5270e-017
  321.2257     1.4950e-017
  321.2407     1.4170e-017
  321.2556     1.3310e-017
  321.2705     1.2940e-017
  321.2855     1.3380e-017
  321.3004     1.4170e-017
  321.3153     1.4360e-017
  321.3303     1.3430e-017
  321.3452     1.2380e-017
  321.3602     1.2170e-017
  321.3751     1.2310e-017
  321.3900     1.1660e-017
  321.4050     1.0490e-017
  321.4199     1.0200e-017
  321.4349     1.0980e-017
  321.4498     1.1670e-017
  321.4648     1.1160e-017
  321.4797     1.0190e-017
  321.4947     9.7530e-018
  321.5096     9.6320e-018
  321.5246     9.3780e-018
  321.5395     9.0820e-018
  321.5545     8.8590e-018
  321.5695     8.4630e-018
  321.5844     7.8760e-018
  321.5994     7.6020e-018
  321.6144     8.0130e-018
  321.6293     8.4800e-018
  321.6443     8.3180e-018
  321.6593     7.9030e-018
  321.6742     7.7670e-018
  321.6892     7.6530e-018
  321.7042     7.2290e-018
  321.7192     6.6020e-018
  321.7341     6.3550e-018
  321.7491     6.5370e-018
  321.7641     6.8570e-018
  321.7791     7.0210e-018
  321.7940     7.0400e-018
  321.8090     6.8540e-018
  321.8240     6.4670e-018
  321.8390     5.9620e-018
  321.8540     5.5560e-018
  321.8690     5.4280e-018
  321.8840     5.5330e-018
  321.8990     5.8230e-018
  321.9140     6.0560e-018
  321.9289     5.9870e-018
  321.9439     5.6380e-018
  321.9589     5.1780e-018
  321.9739     4.8370e-018
  321.9889     4.9280e-018
  322.0039     5.4260e-018
  322.0189     5.6620e-018
  322.0339     5.2750e-018
  322.0489     4.6980e-018
  322.0640     4.4850e-018
  322.0790     4.3980e-018
  322.0940     3.9580e-018
  322.1090     3.4650e-018
  322.1240     3.5870e-018
  322.1390     4.1140e-018
  322.1540     4.0690e-018
  322.1690     3.3400e-018
  322.1841     2.9080e-018
  322.1991     3.2460e-018
  322.2141     3.5460e-018
  322.2291     3.1800e-018
  322.2441     2.6940e-018
  322.2592     2.8950e-018
  322.2742     3.4570e-018
  322.2892     3.6470e-018
  322.3042     3.3890e-018
  322.3193     3.0150e-018
  322.3343     2.6640e-018
  322.3493     2.4760e-018
  322.3644     2.6830e-018
  322.3794     3.0590e-018
  322.3945     2.9850e-018
  322.4095     2.4580e-018
  322.4245     2.4200e-018
  322.4396     3.0700e-018
  322.4546     3.2810e-018
  322.4697     2.3590e-018
  322.4847     1.5580e-018
  322.4997     2.0250e-018
  322.5148     3.0640e-018
  322.5298     3.1100e-018
  322.5449     2.3520e-018
  322.5600     2.1400e-018
  322.5750     2.6530e-018
  322.5901     2.9190e-018
  322.6051     2.6500e-018
  322.6202     2.5440e-018
  322.6352     2.6240e-018
  322.6503     2.3890e-018
  322.6654     1.9740e-018
  322.6804     1.9970e-018
  322.6955     2.3010e-018
  322.7106     2.2460e-018
  322.7256     2.0980e-018
  322.7407     2.4290e-018
  322.7558     2.9920e-018
  322.7708     2.7570e-018
  322.7859     1.9680e-018
  322.8010     1.7980e-018
  322.8161     2.3540e-018
  322.8311     2.6930e-018
  322.8462     2.2800e-018
  322.8613     1.7040e-018
  322.8764     1.4500e-018
  322.8915     1.4550e-018
  322.9066     1.6730e-018
  322.9216     2.1760e-018
  322.9367     2.6690e-018
  322.9518     2.6940e-018
  322.9669     2.4600e-018
  322.9820     2.4100e-018
  322.9971     2.3010e-018
  323.0122     1.7220e-018
  323.0273     1.2520e-018
  323.0424     1.6510e-018
  323.0575     2.4050e-018
  323.0726     2.3480e-018
  323.0877     1.7390e-018
  323.1028     1.5580e-018
  323.1179     1.8000e-018
  323.1330     1.7820e-018
  323.1481     1.5220e-018
  323.1632     1.7110e-018
  323.1783     2.2360e-018
  323.1934     2.3300e-018
  323.2085     1.9760e-018
  323.2237     1.9780e-018
  323.2388     2.4030e-018
  323.2539     2.4560e-018
  323.2690     1.9690e-018
  323.2841     1.6730e-018
  323.2993     1.8810e-018
  323.3144     2.1270e-018
  323.3295     2.0530e-018
  323.3446     1.8450e-018
  323.3598     1.8440e-018
  323.3749     2.1280e-018
  323.3900     2.5570e-018
  323.4051     2.8120e-018
  323.4203     2.5770e-018
  323.4354     2.0710e-018
  323.4506     1.9360e-018
  323.4657     2.3080e-018
  323.4808     2.4560e-018
  323.4960     1.9180e-018
  323.5111     1.5900e-018
  323.5263     2.0670e-018
  323.5414     2.7850e-018
  323.5566     2.8210e-018
  323.5717     2.2150e-018
  323.5868     1.7030e-018
  323.6020     1.4950e-018
  323.6172     1.5300e-018
  323.6323     1.8080e-018
  323.6475     2.3650e-018
  323.6626     2.6740e-018
  323.6778     2.3930e-018
  323.6929     2.1170e-018
  323.7081     2.6250e-018
  323.7233     3.3710e-018
  323.7384     3.1590e-018
  323.7536     2.0650e-018
  323.7687     1.3480e-018
  323.7839     1.4730e-018
  323.7991     1.8020e-018
  323.8143     1.9430e-018
  323.8294     2.0480e-018
  323.8446     2.2620e-018
  323.8598     2.3610e-018
  323.8749     2.1760e-018
  323.8901     2.0160e-018
  323.9053     2.0580e-018
  323.9205     2.0480e-018
  323.9357     1.8330e-018
  323.9508     1.8040e-018
  323.9660     2.2070e-018
  323.9812     2.7430e-018
  323.9964     2.8470e-018
  324.0116     2.6050e-018
  324.0268     2.6270e-018
  324.0420     3.1410e-018
  324.0572     3.5590e-018
  324.0724     3.3800e-018
  324.0875     2.9290e-018
  324.1027     2.8420e-018
  324.1179     3.2000e-018
  324.1332     3.4420e-018
  324.1483     3.3050e-018
  324.1635     3.0170e-018
  324.1787     2.9280e-018
  324.1940     2.9500e-018
  324.2092     3.0900e-018
  324.2244     3.3970e-018
  324.2396     3.6170e-018
  324.2548     3.5180e-018
  324.2700     3.1180e-018
  324.2852     2.9330e-018
  324.3004     3.1760e-018
  324.3156     3.5400e-018
  324.3309     3.6390e-018
  324.3461     3.5140e-018
  324.3613     3.3920e-018
  324.3765     3.4090e-018
  324.3918     3.5640e-018
  324.4070     3.7170e-018
  324.4222     3.7440e-018
  324.4375     3.6720e-018
  324.4527     3.8290e-018
  324.4679     4.2360e-018
  324.4831     4.5590e-018
  324.4984     4.6300e-018
  324.5136     4.8140e-018
  324.5288     5.1220e-018
  324.5441     5.0210e-018
  324.5593     4.4280e-018
  324.5746     4.1400e-018
  324.5898     4.7660e-018
  324.6050     5.7130e-018
  324.6203     6.0780e-018
  324.6355     6.0670e-018
  324.6508     6.1820e-018
  324.6661     6.2770e-018
  324.6813     6.1260e-018
  324.6966     6.2430e-018
  324.7118     7.0680e-018
  324.7271     7.9460e-018
  324.7423     8.0190e-018
  324.7576     7.7950e-018
  324.7728     8.1900e-018
  324.7881     8.7800e-018
  324.8033     8.6770e-018
  324.8186     8.2870e-018
  324.8339     8.5570e-018
  324.8492     9.4460e-018
  324.8644     1.0030e-017
  324.8797     1.0160e-017
  324.8950     1.0490e-017
  324.9102     1.1110e-017
  324.9255     1.1570e-017
  324.9408     1.1940e-017
  324.9561     1.2310e-017
  324.9713     1.2260e-017
  324.9866     1.1740e-017
  325.0019     1.1560e-017
  325.0172     1.2260e-017
  325.0325     1.3260e-017
  325.0478     1.3620e-017
  325.0630     1.3580e-017
  325.0783     1.3890e-017
  325.0936     1.4440e-017
  325.1089     1.4650e-017
  325.1242     1.4830e-017
  325.1395     1.5320e-017
  325.1548     1.5770e-017
  325.1701     1.5690e-017
  325.1854     1.5260e-017
  325.2007     1.4940e-017
  325.2160     1.4790e-017
  325.2313     1.4640e-017
  325.2466     1.4580e-017
  325.2619     1.4790e-017
  325.2772     1.5150e-017
  325.2925     1.5350e-017
  325.3078     1.5330e-017
  325.3231     1.4920e-017
  325.3385     1.4260e-017
  325.3538     1.4080e-017
  325.3691     1.4680e-017
  325.3844     1.5110e-017
  325.3997     1.4420e-017
  325.4151     1.3300e-017
  325.4304     1.2870e-017
  325.4457     1.2820e-017
  325.4610     1.2420e-017
  325.4763     1.2010e-017
  325.4917     1.2580e-017
  325.5070     1.3430e-017
  325.5223     1.2890e-017
  325.5377     1.1400e-017
  325.5530     1.0700e-017
  325.5683     1.1300e-017
  325.5837     1.1730e-017
  325.5990     1.1070e-017
  325.6144     1.0460e-017
  325.6297     1.0610e-017
  325.6450     1.0870e-017
  325.6604     1.0670e-017
  325.6757     1.0430e-017
  325.6911     1.0380e-017
  325.7064     1.0060e-017
  325.7218     9.4570e-018
  325.7371     9.1650e-018
  325.7525     9.4290e-018
  325.7678     9.5270e-018
  325.7832     8.8750e-018
  325.7985     8.1680e-018
  325.8139     8.0900e-018
  325.8292     8.4200e-018
  325.8446     8.5660e-018
  325.8600     8.2920e-018
  325.8753     7.8260e-018
  325.8907     7.2180e-018
  325.9061     6.6610e-018
  325.9214     6.4600e-018
  325.9368     6.6810e-018
  325.9522     6.9430e-018
  325.9675     6.8560e-018
  325.9829     6.5450e-018
  325.9983     6.4660e-018
  326.0137     6.6260e-018
  326.0290     6.5210e-018
  326.0444     6.0360e-018
  326.0598     5.6940e-018
  326.0752     5.9610e-018
  326.0906     6.4170e-018
  326.1060     6.2130e-018
  326.1213     5.6270e-018
  326.1367     5.5300e-018
  326.1521     5.9740e-018
  326.1675     5.9140e-018
  326.1829     5.0670e-018
  326.1983     4.3050e-018
  326.2137     4.2710e-018
  326.2291     4.5460e-018
  326.2445     4.4780e-018
  326.2599     4.2510e-018
  326.2753     4.1830e-018
  326.2907     4.1520e-018
  326.3061     3.9410e-018
  326.3215     3.8470e-018
  326.3369     4.0520e-018
  326.3523     4.0560e-018
  326.3677     3.7070e-018
  326.3831     3.4010e-018
  326.3986     3.5300e-018
  326.4140     3.6640e-018
  326.4294     3.3680e-018
  326.4448     2.9800e-018
  326.4602     2.9790e-018
  326.4756     3.2630e-018
  326.4911     3.4650e-018
  326.5065     3.5800e-018
  326.5219     3.6840e-018
  326.5373     3.5810e-018
  326.5528     3.1780e-018
  326.5682     2.8130e-018
  326.5836     2.7780e-018
  326.5991     2.8960e-018
  326.6145     2.7280e-018
  326.6299     2.3100e-018
  326.6454     2.1030e-018
  326.6608     2.3980e-018
  326.6762     2.7580e-018
  326.6917     2.7020e-018
  326.7071     2.2480e-018
  326.7226     1.8740e-018
  326.7380     2.0780e-018
  326.7535     2.5440e-018
  326.7689     2.5350e-018
  326.7844     2.1040e-018
  326.7998     1.8910e-018
  326.8153     2.0070e-018
  326.8307     2.0130e-018
  326.8462     1.7720e-018
  326.8616     1.7660e-018
  326.8771     2.1250e-018
  326.8926     2.2830e-018
  326.9080     1.9110e-018
  326.9235     1.4960e-018
  326.9389     1.4680e-018
  326.9544     1.5770e-018
  326.9699     1.5360e-018
  326.9853     1.5930e-018
  327.0008     1.9800e-018
  327.0163     2.3130e-018
  327.0318     2.1970e-018
  327.0472     1.8180e-018
  327.0627     1.5820e-018
  327.0782     1.6100e-018
  327.0937     1.6970e-018
  327.1091     1.7890e-018
  327.1246     1.7850e-018
  327.1401     1.5450e-018
  327.1556     1.2550e-018
  327.1711     1.2490e-018
  327.1866     1.5780e-018
  327.2020     1.8940e-018
  327.2175     1.7980e-018
  327.2330     1.5130e-018
  327.2485     1.4370e-018
  327.2640     1.7030e-018
  327.2795     2.0270e-018
  327.2950     1.9510e-018
  327.3105     1.5690e-018
  327.3260     1.2860e-018
  327.3415     1.4690e-018
  327.3570     1.8500e-018
  327.3725     1.7700e-018
  327.3880     1.3860e-018
  327.4035     1.3100e-018
  327.4191     1.6570e-018
  327.4346     1.7560e-018
  327.4501     1.2280e-018
  327.4656     6.1660e-019
  327.4811     6.5150e-019
  327.4966     1.3450e-018
  327.5121     2.1040e-018
  327.5277     2.3470e-018
  327.5432     1.9820e-018
  327.5587     1.4550e-018
  327.5742     1.4260e-018
  327.5898     1.8910e-018
  327.6053     2.0480e-018
  327.6208     1.5410e-018
  327.6363     1.1150e-018
  327.6519     1.4000e-018
  327.6674     1.7650e-018
  327.6829     1.4550e-018
  327.6985     1.0610e-018
  327.7140     1.5420e-018
  327.7295     2.3950e-018
  327.7451     2.3480e-018
  327.7606     1.5650e-018
  327.7762     1.2590e-018
  327.7917     1.5810e-018
  327.8073     1.5940e-018
  327.8228     1.1980e-018
  327.8384     1.3040e-018
  327.8539     1.9760e-018
  327.8695     2.2170e-018
  327.8850     1.7690e-018
  327.9006     1.5890e-018
  327.9161     1.8870e-018
  327.9317     1.8050e-018
  327.9473     1.2240e-018
  327.9628     1.1370e-018
  327.9784     1.7790e-018
  327.9940     2.1700e-018
  328.0095     1.7660e-018
  328.0251     1.3870e-018
  328.0406     1.7410e-018
  328.0562     2.2840e-018
  328.0718     2.1040e-018
  328.0874     1.5490e-018
  328.1029     1.5240e-018
  328.1185     2.0490e-018
  328.1341     2.4390e-018
  328.1497     2.2740e-018
  328.1652     1.8570e-018
  328.1808     1.6770e-018
  328.1964     1.7840e-018
  328.2120     1.8690e-018
  328.2276     1.8220e-018
  328.2432     1.8420e-018
  328.2588     2.1860e-018
  328.2743     2.7160e-018
  328.2899     3.0530e-018
  328.3055     3.0520e-018
  328.3211     2.9680e-018
  328.3367     3.0330e-018
  328.3523     3.1920e-018
  328.3679     3.2360e-018
  328.3835     3.0970e-018
  328.3991     2.8370e-018
  328.4147     2.7560e-018
  328.4303     3.0300e-018
  328.4459     3.4420e-018
  328.4616     3.6240e-018
  328.4772     3.4300e-018
  328.4928     3.3620e-018
  328.5084     3.8090e-018
  328.5240     4.3150e-018
  328.5396     4.2350e-018
  328.5552     3.9250e-018
  328.5709     3.9940e-018
  328.5865     4.4950e-018
  328.6021     4.8950e-018
  328.6177     5.0560e-018
  328.6333     5.1470e-018
  328.6490     5.1600e-018
  328.6646     5.0360e-018
  328.6802     4.9990e-018
  328.6959     5.4200e-018
  328.7115     6.1800e-018
  328.7271     6.6560e-018
  328.7428     6.5580e-018
  328.7584     6.3190e-018
  328.7740     6.2970e-018
  328.7897     6.5720e-018
  328.8053     7.0960e-018
  328.8210     7.6400e-018
  328.8366     7.9060e-018
  328.8523     7.8620e-018
  328.8679     7.8100e-018
  328.8835     7.9280e-018
  328.8992     8.2740e-018
  328.9149     8.9780e-018
  328.9305     9.7690e-018
  328.9462     9.9240e-018
  328.9618     9.3600e-018
  328.9775     9.2780e-018
  328.9931     1.0350e-017
  329.0088     1.1430e-017
  329.0245     1.1070e-017
  329.0401     1.0060e-017
  329.0558     1.0180e-017
  329.0714     1.1320e-017
  329.0871     1.1880e-017
  329.1028     1.1510e-017
  329.1185     1.1720e-017
  329.1341     1.2720e-017
  329.1498     1.3100e-017
  329.1655     1.2490e-017
  329.1812     1.2450e-017
  329.1968     1.3480e-017
  329.2125     1.4120e-017
  329.2282     1.3310e-017
  329.2439     1.2520e-017
  329.2596     1.3040e-017
  329.2752     1.4060e-017
  329.2909     1.4240e-017
  329.3066     1.3890e-017
  329.3223     1.3980e-017
  329.3380     1.4280e-017
  329.3537     1.4220e-017
  329.3694     1.4070e-017
  329.3851     1.4360e-017
  329.4008     1.4640e-017
  329.4165     1.4320e-017
  329.4322     1.3750e-017
  329.4479     1.3640e-017
  329.4636     1.3870e-017
  329.4793     1.3890e-017
  329.4950     1.3610e-017
  329.5107     1.3390e-017
  329.5264     1.3360e-017
  329.5421     1.3410e-017
  329.5579     1.3380e-017
  329.5736     1.3030e-017
  329.5893     1.2500e-017
  329.6050     1.2190e-017
  329.6207     1.2360e-017
  329.6364     1.2620e-017
  329.6522     1.2580e-017
  329.6679     1.2320e-017
  329.6836     1.2110e-017
  329.6993     1.2080e-017
  329.7151     1.1940e-017
  329.7308     1.1730e-017
  329.7465     1.1590e-017
  329.7623     1.1380e-017
  329.7780     1.1010e-017
  329.7937     1.0760e-017
  329.8095     1.0970e-017
  329.8252     1.1400e-017
  329.8409     1.1300e-017
  329.8567     1.0540e-017
  329.8724     9.8730e-018
  329.8882     9.9250e-018
  329.9039     1.0430e-017
  329.9197     1.0490e-017
  329.9354     9.7720e-018
  329.9512     8.9490e-018
  329.9669     8.6760e-018
  329.9827     8.9360e-018
  329.9984     9.1840e-018
  330.0142     9.0970e-018
  330.0299     8.8930e-018
  330.0457     8.7000e-018
  330.0615     8.4580e-018
  330.0772     8.1440e-018
  330.0930     7.9230e-018
  330.1087     7.9930e-018
  330.1245     8.2600e-018
  330.1403     8.4730e-018
  330.1561     8.4700e-018
  330.1718     8.1130e-018
  330.1876     7.5720e-018
  330.2034     7.3140e-018
  330.2191     7.5460e-018
  330.2349     7.7640e-018
  330.2507     7.4830e-018
  330.2665     7.0140e-018
  330.2823     6.8630e-018
  330.2981     6.9310e-018
  330.3138     6.7800e-018
  330.3296     6.4500e-018
  330.3454     6.3560e-018
  330.3612     6.4800e-018
  330.3770     6.4950e-018
  330.3928     6.3580e-018
  330.4086     6.3140e-018
  330.4244     6.3690e-018
  330.4402     6.1990e-018
  330.4560     5.8460e-018
  330.4718     5.6600e-018
  330.4876     5.6990e-018
  330.5034     5.5640e-018
  330.5192     5.1280e-018
  330.5350     4.7680e-018
  330.5508     4.7260e-018
  330.5666     4.9220e-018
  330.5824     5.0440e-018
  330.5982     4.9730e-018
  330.6140     4.8440e-018
  330.6299     4.8030e-018
  330.6457     4.8500e-018
  330.6615     4.7440e-018
  330.6773     4.2710e-018
  330.6931     3.7510e-018
  330.7090     3.6140e-018
  330.7248     3.7450e-018
  330.7406     3.7680e-018
  330.7564     3.6710e-018
  330.7723     3.7700e-018
  330.7881     4.0170e-018
  330.8039     4.0000e-018
  330.8197     3.7130e-018
  330.8356     3.5400e-018
  330.8514     3.6390e-018
  330.8673     3.6410e-018
  330.8831     3.4410e-018
  330.8989     3.3400e-018
  330.9148     3.4480e-018
  330.9306     3.5130e-018
  330.9465     3.4570e-018
  330.9623     3.5170e-018
  330.9782     3.6640e-018
  330.9940     3.6100e-018
  331.0099     3.3230e-018
  331.0257     3.1880e-018
  331.0416     3.2670e-018
  331.0574     3.3040e-018
  331.0733     3.2720e-018
  331.0892     3.3140e-018
  331.1050     3.2920e-018
  331.1209     2.9370e-018
  331.1367     2.4330e-018
  331.1526     2.2560e-018
  331.1685     2.4030e-018
  331.1843     2.4380e-018
  331.2002     2.2230e-018
  331.2161     2.0670e-018
  331.2320     2.2530e-018
  331.2478     2.6060e-018
  331.2637     2.8080e-018
  331.2796     2.8210e-018
  331.2955     2.8000e-018
  331.3114     2.7990e-018
  331.3272     2.6260e-018
  331.3431     2.2330e-018
  331.3590     1.9210e-018
  331.3749     2.0180e-018
  331.3908     2.4340e-018
  331.4067     2.7020e-018
  331.4226     2.5460e-018
  331.4384     2.3210e-018
  331.4543     2.3460e-018
  331.4702     2.4370e-018
  331.4861     2.2420e-018
  331.5020     1.8710e-018
  331.5179     1.7760e-018
  331.5338     1.9520e-018
  331.5497     2.0520e-018
  331.5656     1.9650e-018
  331.5816     1.9130e-018
  331.5974     2.0340e-018
  331.6134     2.1940e-018
  331.6293     2.2400e-018
  331.6452     2.1840e-018
  331.6611     2.0420e-018
  331.6770     1.8730e-018
  331.6929     1.7920e-018
  331.7089     1.8210e-018
  331.7248     1.8410e-018
  331.7407     1.8010e-018
  331.7566     1.7920e-018
  331.7725     1.9220e-018
  331.7885     2.0360e-018
  331.8044     2.0060e-018
  331.8203     1.8740e-018
  331.8362     1.7650e-018
  331.8522     1.7030e-018
  331.8681     1.6570e-018
  331.8841     1.5840e-018
  331.9000     1.5110e-018
  331.9159     1.5180e-018
  331.9319     1.5680e-018
  331.9478     1.5280e-018
  331.9638     1.3710e-018
  331.9797     1.3090e-018
  331.9957     1.5610e-018
  332.0116     1.8030e-018
  332.0276     1.6310e-018
  332.0435     1.2610e-018
  332.0595     1.1320e-018
  332.0754     1.1690e-018
  332.0914     1.0160e-018
  332.1073     7.6390e-019
  332.1233     8.4870e-019
  332.1392     1.1350e-018
  332.1552     9.5850e-019
  332.1712     8.2700e-019
  332.1871     1.0030e-018
  332.2031     1.2620e-018
  332.2191     1.1960e-018
  332.2350     9.0900e-019
  332.2510     9.5800e-019
  332.2670     1.4140e-018
  332.2829     1.6520e-018
  332.2989     1.2830e-018
  332.3149     8.1200e-019
  332.3309     7.7200e-019
  332.3468     9.7560e-019
  332.3628     9.7580e-019
  332.3788     8.0290e-019
  332.3948     7.7930e-019
  332.4108     9.4210e-019
  332.4268     1.0060e-018
  332.4428     1.0170e-018
  332.4587     1.1700e-018
  332.4748     1.3120e-018
  332.4907     1.1920e-018
  332.5067     9.4550e-019
  332.5227     1.0090e-018
  332.5387     1.3020e-018
  332.5547     1.3430e-018
  332.5707     1.0900e-018
  332.5867     1.0420e-018
  332.6027     1.3870e-018
  332.6188     1.6560e-018
  332.6348     1.4960e-018
  332.6508     1.2650e-018
  332.6668     1.3590e-018
  332.6828     1.5530e-018
  332.6988     1.4840e-018
  332.7148     1.3020e-018
  332.7308     1.4300e-018
  332.7469     1.7540e-018
  332.7629     1.8050e-018
  332.7789     1.5620e-018
  332.7949     1.5350e-018
  332.8109     1.7870e-018
  332.8270     1.8500e-018
  332.8430     1.6620e-018
  332.8590     1.6790e-018
  332.8751     2.1270e-018
  332.8911     2.5270e-018
  332.9071     2.4510e-018
  332.9232     2.2070e-018
  332.9392     2.2580e-018
  332.9552     2.4430e-018
  332.9713     2.4770e-018
  332.9873     2.5760e-018
  333.0034     2.9760e-018
  333.0194     3.3940e-018
  333.0354     3.4160e-018
  333.0515     3.2480e-018
  333.0675     3.3880e-018
  333.0836     3.7900e-018
  333.0996     4.0080e-018
  333.1157     3.9860e-018
  333.1318     4.2170e-018
  333.1478     4.8080e-018
  333.1639     5.3260e-018
  333.1799     5.5520e-018
  333.1960     5.7800e-018
  333.2121     6.2150e-018
  333.2281     6.7080e-018
  333.2442     7.0320e-018
  333.2603     7.2250e-018
  333.2763     7.4840e-018
  333.2924     7.8370e-018
  333.3085     8.3180e-018
  333.3245     8.9340e-018
  333.3406     9.5410e-018
  333.3567     9.8870e-018
  333.3728     1.0130e-017
  333.3889     1.0660e-017
  333.4049     1.1520e-017
  333.4210     1.2150e-017
  333.4371     1.2130e-017
  333.4532     1.1980e-017
  333.4693     1.2380e-017
  333.4854     1.3260e-017
  333.5015     1.3880e-017
  333.5175     1.3950e-017
  333.5337     1.3950e-017
  333.5497     1.4460e-017
  333.5658     1.5210e-017
  333.5819     1.5540e-017
  333.5980     1.5310e-017
  333.6142     1.5080e-017
  333.6302     1.5280e-017
  333.6464     1.5580e-017
  333.6625     1.5570e-017
  333.6786     1.5310e-017
  333.6947     1.5190e-017
  333.7108     1.5430e-017
  333.7269     1.5550e-017
  333.7430     1.5210e-017
  333.7591     1.4730e-017
  333.7753     1.4590e-017
  333.7914     1.4720e-017
  333.8075     1.4570e-017
  333.8236     1.4110e-017
  333.8397     1.3860e-017
  333.8559     1.3990e-017
  333.8720     1.3960e-017
  333.8881     1.3630e-017
  333.9042     1.3410e-017
  333.9204     1.3480e-017
  333.9365     1.3410e-017
  333.9527     1.3050e-017
  333.9688     1.2880e-017
  333.9849     1.3040e-017
  334.0011     1.2880e-017
  334.0172     1.2190e-017
  334.0333     1.1740e-017
  334.0495     1.2070e-017
  334.0656     1.2460e-017
  334.0818     1.2170e-017
  334.0979     1.1670e-017
  334.1141     1.1630e-017
  334.1302     1.1750e-017
  334.1464     1.1370e-017
  334.1626     1.0820e-017
  334.1787     1.0750e-017
  334.1949     1.0940e-017
  334.2110     1.0690e-017
  334.2272     1.0120e-017
  334.2433     9.9640e-018
  334.2595     1.0140e-017
  334.2757     1.0100e-017
  334.2918     9.8440e-018
  334.3080     9.8090e-018
  334.3242     9.8660e-018
  334.3403     9.5530e-018
  334.3565     9.0430e-018
  334.3727     9.0110e-018
  334.3889     9.3940e-018
  334.4051     9.4700e-018
  334.4212     9.0290e-018
  334.4374     8.6420e-018
  334.4536     8.5670e-018
  334.4698     8.4090e-018
  334.4860     8.0100e-018
  334.5022     7.7960e-018
  334.5183     7.9230e-018
  334.5345     8.0110e-018
  334.5507     7.7270e-018
  334.5669     7.3300e-018
  334.5831     7.2000e-018
  334.5993     7.2710e-018
  334.6155     7.2580e-018
  334.6317     7.1170e-018
  334.6479     6.9980e-018
  334.6641     6.9210e-018
  334.6803     6.8480e-018
  334.6965     6.7860e-018
  334.7128     6.7850e-018
  334.7289     6.7830e-018
  334.7452     6.6540e-018
  334.7614     6.4060e-018
  334.7776     6.2520e-018
  334.7938     6.2850e-018
  334.8100     6.3040e-018
  334.8262     6.1180e-018
  334.8425     5.9450e-018
  334.8587     6.0290e-018
  334.8749     6.1780e-018
  334.8911     5.8800e-018
  334.9074     5.2710e-018
  334.9236     5.0390e-018
  334.9398     5.3930e-018
  334.9561     5.7770e-018
  334.9723     5.5940e-018
  334.9885     5.1350e-018
  335.0048     4.9710e-018
  335.0210     5.0470e-018
  335.0372     4.9960e-018
  335.0535     4.7970e-018
  335.0697     4.6980e-018
  335.0860     4.7440e-018
  335.1022     4.7380e-018
  335.1185     4.6460e-018
  335.1347     4.5800e-018
  335.1510     4.5230e-018
  335.1672     4.3660e-018
  335.1835     4.2240e-018
  335.1997     4.2140e-018
  335.2160     4.2420e-018
  335.2322     4.1320e-018
  335.2485     3.9370e-018
  335.2648     3.8540e-018
  335.2810     3.9530e-018
  335.2973     4.0270e-018
  335.3135     3.9180e-018
  335.3298     3.7480e-018
  335.3461     3.7140e-018
  335.3624     3.8420e-018
  335.3786     3.8600e-018
  335.3949     3.6500e-018
  335.4112     3.4160e-018
  335.4275     3.4020e-018
  335.4438     3.4800e-018
  335.4600     3.3570e-018
  335.4763     3.0830e-018
  335.4926     3.0230e-018
  335.5089     3.2380e-018
  335.5252     3.4040e-018
  335.5414     3.3250e-018
  335.5577     3.1180e-018
  335.5740     2.8850e-018
  335.5903     2.6780e-018
  335.6066     2.6980e-018
  335.6229     3.0440e-018
  335.6392     3.3340e-018
  335.6555     3.1350e-018
  335.6718     2.7490e-018
  335.6881     2.7900e-018
  335.7044     3.0920e-018
  335.7207     2.9460e-018
  335.7370     2.4250e-018
  335.7534     2.3200e-018
  335.7696     2.7940e-018
  335.7860     3.0270e-018
  335.8023     2.5840e-018
  335.8186     2.1680e-018
  335.8349     2.3410e-018
  335.8512     2.6710e-018
  335.8676     2.5820e-018
  335.8839     2.3320e-018
  335.9002     2.3560e-018
  335.9165     2.5050e-018
  335.9329     2.4520e-018
  335.9492     2.3170e-018
  335.9655     2.3680e-018
  335.9818     2.4550e-018
  335.9982     2.4110e-018
  336.0145     2.3940e-018
  336.0308     2.5430e-018
  336.0472     2.6610e-018
  336.0635     2.5240e-018
  336.0799     2.3240e-018
  336.0962     2.2830e-018
  336.1126     2.3450e-018
  336.1289     2.3850e-018
  336.1453     2.4700e-018
  336.1616     2.6190e-018
  336.1779     2.6010e-018
  336.1943     2.2940e-018
  336.2107     1.9350e-018
  336.2270     1.8880e-018
  336.2434     2.1370e-018
  336.2597     2.3850e-018
  336.2761     2.3590e-018
  336.2924     2.1180e-018
  336.3088     1.9700e-018
  336.3252     2.1260e-018
  336.3415     2.3810e-018
  336.3579     2.2790e-018
  336.3743     1.8520e-018
  336.3906     1.5790e-018
  336.4070     1.7530e-018
  336.4234     2.0230e-018
  336.4398     2.0150e-018
  336.4561     1.9160e-018
  336.4725     2.0780e-018
  336.4889     2.3040e-018
  336.5053     2.1590e-018
  336.5217     1.7960e-018
  336.5380     1.7290e-018
  336.5544     1.9620e-018
  336.5708     2.0600e-018
  336.5872     1.8940e-018
  336.6036     1.8060e-018
  336.6200     1.9450e-018
  336.6364     2.0750e-018
  336.6528     2.0040e-018
  336.6692     1.8980e-018
  336.6856     1.8850e-018
  336.7020     1.8590e-018
  336.7184     1.7730e-018
  336.7348     1.7560e-018
  336.7512     1.8220e-018
  336.7676     1.8110e-018
  336.7840     1.7160e-018
  336.8004     1.7300e-018
  336.8168     1.8610e-018
  336.8333     1.8460e-018
  336.8497     1.6500e-018
  336.8661     1.5370e-018
  336.8825     1.5970e-018
  336.8989     1.6150e-018
  336.9154     1.4740e-018
  336.9318     1.3970e-018
  336.9482     1.5980e-018
  336.9646     1.8090e-018
  336.9811     1.6700e-018
  336.9975     1.3370e-018
  337.0139     1.2460e-018
  337.0303     1.5080e-018
  337.0468     1.8090e-018
  337.0632     1.8780e-018
  337.0797     1.7890e-018
  337.0961     1.7520e-018
  337.1126     1.8170e-018
  337.1290     1.8840e-018
  337.1454     1.9260e-018
  337.1619     1.9380e-018
  337.1783     1.9120e-018
  337.1948     1.8720e-018
  337.2112     1.8480e-018
  337.2277     1.7920e-018
  337.2441     1.6630e-018
  337.2606     1.5760e-018
  337.2771     1.6480e-018
  337.2935     1.7830e-018
  337.3100     1.7520e-018
  337.3264     1.5560e-018
  337.3429     1.4370e-018
  337.3594     1.4880e-018
  337.3758     1.5350e-018
  337.3923     1.4730e-018
  337.4088     1.3870e-018
  337.4252     1.3810e-018
  337.4417     1.3440e-018
  337.4582     1.2630e-018
  337.4747     1.3150e-018
  337.4912     1.5270e-018
  337.5076     1.5840e-018
  337.5241     1.3660e-018
  337.5406     1.1910e-018
  337.5571     1.3260e-018
  337.5736     1.6010e-018
  337.5900     1.6720e-018
  337.6066     1.5550e-018
  337.6231     1.5020e-018
  337.6395     1.5050e-018
  337.6560     1.4190e-018
  337.6725     1.3560e-018
  337.6890     1.4620e-018
  337.7055     1.6040e-018
  337.7220     1.5910e-018
  337.7385     1.5800e-018
  337.7550     1.7730e-018
  337.7715     1.9220e-018
  337.7880     1.7010e-018
  337.8045     1.3750e-018
  337.8211     1.4250e-018
  337.8376     1.7400e-018
  337.8541     1.7840e-018
  337.8706     1.5680e-018
  337.8871     1.6010e-018
  337.9036     1.9620e-018
  337.9202     2.0650e-018
  337.9367     1.6310e-018
  337.9532     1.2450e-018
  337.9697     1.3930e-018
  337.9862     1.7770e-018
  338.0028     1.8550e-018
  338.0193     1.6420e-018
  338.0358     1.5670e-018
  338.0524     1.6810e-018
  338.0689     1.7190e-018
  338.0854     1.6360e-018
  338.1020     1.6550e-018
  338.1185     1.8530e-018
  338.1351     1.9970e-018
  338.1516     1.9890e-018
  338.1682     2.0330e-018
  338.1847     2.1400e-018
  338.2012     2.0780e-018
  338.2178     1.8870e-018
  338.2343     1.9390e-018
  338.2509     2.1900e-018
  338.2675     2.0990e-018
  338.2840     1.8210e-018
  338.3006     2.6650e-018
  338.3171     5.7000e-018
  338.3337     1.0240e-017
  338.3502     1.4170e-017
  338.3668     1.6790e-017
  338.3834     1.9890e-017
  338.4000     2.4280e-017
  338.4165     2.7490e-017
  338.4331     2.7130e-017
  338.4497     2.5520e-017
  338.4662     2.5120e-017
  338.4828     2.5080e-017
  338.4994     2.3830e-017
  338.5160     2.2360e-017
  338.5326     2.2090e-017
  338.5491     2.2440e-017
  338.5657     2.1820e-017
  338.5823     2.0680e-017
  338.5989     2.0260e-017
  338.6155     2.0150e-017
  338.6321     1.9340e-017
  338.6487     1.8280e-017
  338.6652     1.8000e-017
  338.6819     1.8030e-017
  338.6984     1.7330e-017
  338.7150     1.6290e-017
  338.7316     1.5990e-017
  338.7482     1.6120e-017
  338.7648     1.5750e-017
  338.7815     1.5190e-017
  338.7980     1.5070e-017
  338.8147     1.4910e-017
  338.8313     1.4170e-017
  338.8479     1.3580e-017
  338.8645     1.3660e-017
  338.8811     1.3570e-017
  338.8977     1.2640e-017
  338.9143     1.2000e-017
  338.9310     1.2380e-017
  338.9476     1.2540e-017
  338.9642     1.1460e-017
  338.9808     1.0510e-017
  338.9975     1.0970e-017
  339.0141     1.1640e-017
  339.0307     1.0770e-017
  339.0473     9.4970e-018
  339.0640     9.5370e-018
  339.0806     1.0080e-017
  339.0972     9.3050e-018
  339.1139     8.0640e-018
  339.1305     8.2650e-018
  339.1471     9.2720e-018
  339.1638     8.7900e-018
  339.1805     7.2350e-018
  339.1971     7.0590e-018
  339.2137     8.3320e-018
  339.2304     8.5450e-018
  339.2470     7.0040e-018
  339.2637     6.0740e-018
  339.2804     6.8700e-018
  339.2970     7.6390e-018
  339.3137     6.8550e-018
  339.3303     5.8430e-018
  339.3470     6.0690e-018
  339.3636     6.7610e-018
  339.3803     6.4420e-018
  339.3970     5.4970e-018
  339.4136     5.2290e-018
  339.4303     5.6750e-018
  339.4470     5.9120e-018
  339.4637     5.5980e-018
  339.4803     5.1950e-018
  339.4970     5.0110e-018
  339.5137     4.9380e-018
  339.5304     4.9500e-018
  339.5470     4.9570e-018
  339.5637     4.7320e-018
  339.5804     4.3580e-018
  339.5971     4.2380e-018
  339.6137     4.4320e-018
  339.6305     4.4000e-018
  339.6471     3.9380e-018
  339.6638     3.6400e-018
  339.6805     3.9620e-018
  339.6972     4.3820e-018
  339.7139     4.1140e-018
  339.7306     3.3930e-018
  339.7473     3.0520e-018
  339.7640     3.3800e-018
  339.7807     3.7910e-018
  339.7974     3.7560e-018
  339.8141     3.4330e-018
  339.8308     3.1870e-018
  339.8475     3.1160e-018
  339.8642     3.0820e-018
  339.8810     3.0710e-018
  339.8977     3.0530e-018
  339.9144     2.9360e-018
  339.9311     2.7500e-018
  339.9478     2.6960e-018
  339.9646     2.8420e-018
  339.9813     2.9710e-018
  339.9980     2.8740e-018
  340.0147     2.6780e-018
  340.0315     2.6250e-018
  340.0482     2.6850e-018
  340.0649     2.6740e-018
  340.0816     2.5640e-018
  340.0984     2.4930e-018
  340.1151     2.4850e-018
  340.1319     2.4480e-018
  340.1486     2.3870e-018
  340.1653     2.3400e-018
  340.1821     2.2800e-018
  340.1988     2.2430e-018
  340.2156     2.3320e-018
  340.2323     2.5100e-018
  340.2491     2.5160e-018
  340.2658     2.3040e-018
  340.2826     2.1670e-018
  340.2993     2.2960e-018
  340.3161     2.4280e-018
  340.3328     2.2260e-018
  340.3496     1.8920e-018
  340.3663     1.8260e-018
  340.3831     1.9680e-018
  340.3999     1.9550e-018
  340.4166     1.8000e-018
  340.4334     1.8070e-018
  340.4502     1.9740e-018
  340.4670     1.9880e-018
  340.4837     1.8180e-018
  340.5005     1.7780e-018
  340.5173     1.9220e-018
  340.5340     1.9600e-018
  340.5508     1.8100e-018
  340.5676     1.7600e-018
  340.5844     1.9410e-018
  340.6012     2.0750e-018
  340.6179     1.9620e-018
  340.6347     1.8030e-018
  340.6515     1.7950e-018
  340.6683     1.8300e-018
  340.6851     1.8060e-018
  340.7019     1.8960e-018
  340.7187     2.1510e-018
  340.7355     2.2560e-018
  340.7523     1.9940e-018
  340.7691     1.6570e-018
  340.7859     1.6340e-018
  340.8027     1.8070e-018
  340.8195     1.8740e-018
  340.8363     1.8450e-018
  340.8531     1.9150e-018
  340.8699     1.9750e-018
  340.8867     1.8040e-018
  340.9035     1.4910e-018
  340.9204     1.4030e-018
  340.9372     1.5770e-018
  340.9540     1.6930e-018
  340.9708     1.6380e-018
  340.9876     1.5980e-018
  341.0045     1.6560e-018
  341.0213     1.6300e-018
  341.0381     1.4640e-018
  341.0549     1.3970e-018
  341.0718     1.5500e-018
  341.0886     1.6960e-018
  341.1054     1.6600e-018
  341.1223     1.5710e-018
  341.1391     1.6070e-018
  341.1559     1.7250e-018
  341.1728     1.7780e-018
  341.1896     1.7210e-018
  341.2065     1.6370e-018
  341.2233     1.6060e-018
  341.2402     1.6030e-018
  341.2570     1.5950e-018
  341.2739     1.5500e-018
  341.2907     1.5240e-018
  341.3076     1.6060e-018
  341.3244     1.7410e-018
  341.3413     1.7440e-018
  341.3581     1.6010e-018
  341.3750     1.5340e-018
  341.3919     1.6540e-018
  341.4087     1.7730e-018
  341.4256     1.7280e-018
  341.4424     1.6420e-018
  341.4593     1.6730e-018
  341.4762     1.7300e-018
  341.4931     1.6700e-018
  341.5100     1.6410e-018
  341.5268     1.7900e-018
  341.5437     1.9420e-018
  341.5606     1.8610e-018
  341.5775     1.6890e-018
  341.5943     1.7280e-018
  341.6112     1.9000e-018
  341.6281     1.9130e-018
  341.6450     1.7950e-018
  341.6619     1.8090e-018
  341.6788     1.9550e-018
  341.6956     1.9960e-018
  341.7125     1.8620e-018
  341.7294     1.7950e-018
  341.7463     1.9200e-018
  341.7632     2.0760e-018
  341.7801     2.0970e-018
  341.7971     1.9970e-018
  341.8139     1.8930e-018
  341.8309     1.8340e-018
  341.8478     1.8370e-018
  341.8647     1.8840e-018
  341.8816     1.9290e-018
  341.8985     1.9360e-018
  341.9154     1.9060e-018
  341.9323     1.8620e-018
  341.9492     1.8620e-018
  341.9662     1.9960e-018
  341.9831     2.2150e-018
  342.0000     2.3030e-018
  342.0169     2.1360e-018
  342.0338     1.9030e-018
  342.0508     1.8800e-018
  342.0677     2.0510e-018
  342.0846     2.1450e-018
  342.1015     2.1130e-018
  342.1185     2.1240e-018
  342.1354     2.2270e-018
  342.1524     2.2660e-018
  342.1693     2.2640e-018
  342.1862     2.4010e-018
  342.2032     2.6070e-018
  342.2201     2.5900e-018
  342.2371     2.3610e-018
  342.2540     2.2770e-018
  342.2710     2.4580e-018
  342.2879     2.6120e-018
  342.3049     2.5140e-018
  342.3218     2.4180e-018
  342.3388     2.5900e-018
  342.3557     2.8590e-018
  342.3727     2.9220e-018
  342.3896     2.8480e-018
  342.4066     2.8940e-018
  342.4236     3.0150e-018
  342.4405     3.0070e-018
  342.4575     2.8820e-018
  342.4745     2.8080e-018
  342.4914     2.8090e-018
  342.5084     2.7760e-018
  342.5254     2.7470e-018
  342.5424     2.8790e-018
  342.5594     3.0850e-018
  342.5763     3.1240e-018
  342.5933     3.0300e-018
  342.6103     3.0680e-018
  342.6273     3.2860e-018
  342.6442     3.3810e-018
  342.6612     3.2210e-018
  342.6782     3.0960e-018
  342.6952     3.2760e-018
  342.7122     3.5990e-018
  342.7292     3.7140e-018
  342.7462     3.6320e-018
  342.7632     3.5600e-018
  342.7802     3.5350e-018
  342.7972     3.5000e-018
  342.8142     3.5290e-018
  342.8312     3.7660e-018
  342.8482     4.0340e-018
  342.8652     4.0400e-018
  342.8822     3.8890e-018
  342.8992     3.9320e-018
  342.9163     4.2160e-018
  342.9333     4.4340e-018
  342.9503     4.4430e-018
  342.9673     4.4370e-018
  342.9843     4.5880e-018
  343.0013     4.7340e-018
  343.0184     4.7110e-018
  343.0354     4.6300e-018
  343.0524     4.7020e-018
  343.0694     4.9310e-018
  343.0865     5.1810e-018
  343.1035     5.3090e-018
  343.1205     5.2720e-018
  343.1376     5.1860e-018
  343.1546     5.2190e-018
  343.1716     5.3960e-018
  343.1887     5.5860e-018
  343.2057     5.7140e-018
  343.2228     5.9170e-018
  343.2398     6.2190e-018
  343.2568     6.4240e-018
  343.2739     6.4260e-018
  343.2909     6.4340e-018
  343.3080     6.6220e-018
  343.3251     6.8400e-018
  343.3421     6.8540e-018
  343.3592     6.8280e-018
  343.3762     7.0200e-018
  343.3933     7.3380e-018
  343.4103     7.4790e-018
  343.4274     7.4530e-018
  343.4445     7.5680e-018
  343.4615     7.8990e-018
  343.4786     8.2120e-018
  343.4957     8.3220e-018
  343.5127     8.3320e-018
  343.5298     8.3900e-018
  343.5469     8.5620e-018
  343.5640     8.8490e-018
  343.5811     9.1370e-018
  343.5981     9.2790e-018
  343.6152     9.2560e-018
  343.6323     9.2440e-018
  343.6494     9.3620e-018
  343.6665     9.5360e-018
  343.6836     9.6290e-018
  343.7006     9.6630e-018
  343.7177     9.7240e-018
  343.7348     9.7940e-018
  343.7519     9.8670e-018
  343.7690     9.9690e-018
  343.7861     1.0110e-017
  343.8032     1.0280e-017
  343.8203     1.0440e-017
  343.8374     1.0530e-017
  343.8545     1.0470e-017
  343.8717     1.0290e-017
  343.8888     1.0160e-017
  343.9059     1.0200e-017
  343.9230     1.0260e-017
  343.9401     1.0230e-017
  343.9572     1.0250e-017
  343.9743     1.0390e-017
  343.9914     1.0440e-017
  344.0086     1.0230e-017
  344.0257     1.0020e-017
  344.0428     1.0050e-017
  344.0599     1.0090e-017
  344.0771     9.8220e-018
  344.0942     9.4060e-018
  344.1113     9.2770e-018
  344.1285     9.4440e-018
  344.1456     9.5740e-018
  344.1627     9.4950e-018
  344.1799     9.3550e-018
  344.1970     9.2380e-018
  344.2142     9.1310e-018
  344.2313     9.0530e-018
  344.2484     9.0490e-018
  344.2656     9.0230e-018
  344.2827     8.9140e-018
  344.2999     8.8300e-018
  344.3170     8.7700e-018
  344.3342     8.5560e-018
  344.3513     8.1980e-018
  344.3685     7.9930e-018
  344.3857     8.0520e-018
  344.4028     8.0570e-018
  344.4200     7.7740e-018
  344.4371     7.4790e-018
  344.4543     7.4470e-018
  344.4715     7.4410e-018
  344.4887     7.1810e-018
  344.5058     6.8290e-018
  344.5230     6.7090e-018
  344.5402     6.7700e-018
  344.5573     6.7330e-018
  344.5745     6.5990e-018
  344.5917     6.5660e-018
  344.6089     6.5730e-018
  344.6261     6.4050e-018
  344.6433     6.0840e-018
  344.6604     5.8610e-018
  344.6776     5.8050e-018
  344.6948     5.7730e-018
  344.7120     5.6430e-018
  344.7292     5.4590e-018
  344.7464     5.3400e-018
  344.7636     5.3160e-018
  344.7808     5.2600e-018
  344.7980     5.0570e-018
  344.8152     4.7810e-018
  344.8324     4.6780e-018
  344.8496     4.7880e-018
  344.8668     4.8270e-018
  344.8840     4.5990e-018
  344.9012     4.3500e-018
  344.9184     4.3790e-018
  344.9357     4.5510e-018
  344.9529     4.4780e-018
  344.9701     4.1520e-018
  344.9873     3.8930e-018
  345.0045     3.8180e-018
  345.0217     3.7590e-018
  345.0390     3.6510e-018
  345.0562     3.6340e-018
  345.0734     3.7570e-018
  345.0906     3.8250e-018
  345.1079     3.7280e-018
  345.1251     3.5520e-018
  345.1423     3.3640e-018
  345.1596     3.2000e-018
  345.1768     3.1430e-018
  345.1941     3.2280e-018
  345.2113     3.2790e-018
  345.2285     3.1120e-018
  345.2458     2.8730e-018
  345.2630     2.8360e-018
  345.2803     2.9500e-018
  345.2975     2.9490e-018
  345.3148     2.7660e-018
  345.3320     2.6510e-018
  345.3493     2.7210e-018
  345.3665     2.8030e-018
  345.3838     2.7570e-018
  345.4010     2.6260e-018
  345.4183     2.5320e-018
  345.4356     2.4620e-018
  345.4528     2.3630e-018
  345.4701     2.2760e-018
  345.4874     2.2460e-018
  345.5046     2.2560e-018
  345.5219     2.2650e-018
  345.5392     2.2680e-018
  345.5565     2.2520e-018
  345.5737     2.1660e-018
  345.5910     2.0080e-018
  345.6083     1.8360e-018
  345.6256     1.7700e-018
  345.6429     1.8560e-018
  345.6602     1.9590e-018
  345.6774     1.9330e-018
  345.6947     1.8070e-018
  345.7120     1.7430e-018
  345.7293     1.7750e-018
  345.7466     1.7590e-018
  345.7639     1.6240e-018
  345.7812     1.5380e-018
  345.7985     1.6170e-018
  345.8158     1.7350e-018
  345.8331     1.7030e-018
  345.8504     1.5730e-018
  345.8677     1.5600e-018
  345.8850     1.6320e-018
  345.9023     1.5730e-018
  345.9197     1.3550e-018
  345.9369     1.2190e-018
  345.9543     1.3160e-018
  345.9716     1.4850e-018
  345.9889     1.5010e-018
  346.0062     1.3820e-018
  346.0236     1.3230e-018
  346.0409     1.3960e-018
  346.0582     1.4660e-018
  346.0755     1.4140e-018
  346.0929     1.3110e-018
  346.1102     1.3110e-018
  346.1275     1.4170e-018
  346.1449     1.4660e-018
  346.1622     1.3460e-018
  346.1795     1.1640e-018
  346.1969     1.0950e-018
  346.2142     1.1530e-018
  346.2316     1.2070e-018
  346.2489     1.1930e-018
  346.2663     1.1760e-018
  346.2836     1.2030e-018
  346.3009     1.2230e-018
  346.3183     1.1750e-018
  346.3357     1.0800e-018
  346.3530     9.9870e-019
  346.3704     9.6410e-019
  346.3877     9.7800e-019
  346.4051     1.0300e-018
  346.4224     1.0880e-018
  346.4398     1.0820e-018
  346.4572     1.0000e-018
  346.4745     8.9050e-019
  346.4919     8.1520e-019
  346.5093     7.9490e-019
  346.5267     8.1070e-019
  346.5440     8.7160e-019
  346.5614     9.7860e-019
  346.5788     1.0820e-018
  346.5962     1.0990e-018
  346.6135     1.0240e-018
  346.6309     9.7010e-019
  346.6483     1.0200e-018
  346.6657     1.1110e-018
  346.6831     1.1190e-018
  346.7005     1.0140e-018
  346.7179     9.1170e-019
  346.7353     8.9510e-019
  346.7526     9.2220e-019
  346.7700     9.3590e-019
  346.7875     9.5720e-019
  346.8049     1.0200e-018
  346.8223     1.0390e-018
  346.8396     9.6610e-019
  346.8571     8.9780e-019
  346.8745     9.7710e-019
  346.8919     1.1880e-018
  346.9093     1.3210e-018
  346.9267     1.2500e-018
  346.9441     1.0790e-018
  346.9615     9.8590e-019
  346.9789     9.9940e-019
  346.9964     1.0170e-018
  347.0138     9.9310e-019
  347.0312     1.0050e-018
  347.0487     1.1140e-018
  347.0661     1.2100e-018
  347.0835     1.1660e-018
  347.1009     1.0430e-018
  347.1184     1.0270e-018
  347.1358     1.1640e-018
  347.1532     1.2900e-018
  347.1707     1.2940e-018
  347.1881     1.2500e-018
  347.2055     1.2350e-018
  347.2230     1.2130e-018
  347.2404     1.1560e-018
  347.2579     1.1480e-018
  347.2753     1.2380e-018
  347.2928     1.2990e-018
  347.3102     1.2260e-018
  347.3277     1.1180e-018
  347.3451     1.1360e-018
  347.3626     1.2600e-018
  347.3801     1.3380e-018
  347.3975     1.3360e-018
  347.4150     1.3090e-018
  347.4324     1.2830e-018
  347.4499     1.2570e-018
  347.4674     1.2620e-018
  347.4848     1.3470e-018
  347.5023     1.4620e-018
  347.5198     1.5240e-018
  347.5372     1.5560e-018
  347.5547     1.5620e-018
  347.5722     1.5130e-018
  347.5897     1.4530e-018
  347.6072     1.4950e-018
  347.6246     1.6650e-018
  347.6421     1.7960e-018
  347.6596     1.7500e-018
  347.6771     1.6330e-018
  347.6946     1.6230e-018
  347.7121     1.7420e-018
  347.7296     1.8940e-018
  347.7471     2.0300e-018
  347.7646     2.1240e-018
  347.7821     2.1270e-018
  347.7996     2.0560e-018
  347.8171     2.0410e-018
  347.8346     2.1850e-018
  347.8521     2.3890e-018
  347.8696     2.4890e-018
  347.8871     2.4710e-018
  347.9046     2.4290e-018
  347.9221     2.4480e-018
  347.9396     2.5360e-018
  347.9572     2.6510e-018
  347.9747     2.7640e-018
  347.9922     2.8800e-018
  348.0097     3.0370e-018
  348.0272     3.2170e-018
  348.0448     3.3170e-018
  348.0623     3.2930e-018
  348.0798     3.2600e-018
  348.0973     3.3680e-018
  348.1149     3.5590e-018
  348.1324     3.6770e-018
  348.1499     3.7180e-018
  348.1675     3.8540e-018
  348.1850     4.1260e-018
  348.2026     4.3840e-018
  348.2201     4.5110e-018
  348.2377     4.5590e-018
  348.2552     4.6080e-018
  348.2728     4.6950e-018
  348.2903     4.8500e-018
  348.3078     5.0910e-018
  348.3254     5.2780e-018
  348.3430     5.3110e-018
  348.3605     5.3760e-018
  348.3781     5.6830e-018
  348.3956     6.0470e-018
  348.4132     6.0750e-018
  348.4308     5.8450e-018
  348.4483     5.8970e-018
  348.4659     6.4130e-018
  348.4835     6.8900e-018
  348.5010     6.8860e-018
  348.5186     6.6860e-018
  348.5362     6.7790e-018
  348.5537     7.1130e-018
  348.5713     7.2840e-018
  348.5889     7.2710e-018
  348.6065     7.3730e-018
  348.6241     7.6300e-018
  348.6417     7.7650e-018
  348.6593     7.7160e-018
  348.6768     7.7040e-018
  348.6944     7.8150e-018
  348.7120     7.8950e-018
  348.7296     7.9010e-018
  348.7472     7.9970e-018
  348.7648     8.1370e-018
  348.7824     8.0840e-018
  348.8000     7.8620e-018
  348.8176     7.8230e-018
  348.8352     8.0890e-018
  348.8528     8.3160e-018
  348.8704     8.2340e-018
  348.8880     8.0510e-018
  348.9057     8.0270e-018
  348.9232     8.0990e-018
  348.9409     8.0810e-018
  348.9585     8.0290e-018
  348.9761     8.0640e-018
  348.9938     8.0490e-018
  349.0114     7.8080e-018
  349.0290     7.5400e-018
  349.0466     7.5560e-018
  349.0642     7.7980e-018
  349.0819     7.8690e-018
  349.0995     7.6280e-018
  349.1171     7.3880e-018
  349.1348     7.4110e-018
  349.1524     7.5400e-018
  349.1700     7.4740e-018
  349.1877     7.2240e-018
  349.2053     7.0320e-018
  349.2230     7.0460e-018
  349.2406     7.1490e-018
  349.2583     7.1560e-018
  349.2759     6.9820e-018
  349.2936     6.7100e-018
  349.3112     6.5280e-018
  349.3289     6.5420e-018
  349.3465     6.6520e-018
  349.3642     6.6510e-018
  349.3818     6.4890e-018
  349.3995     6.3460e-018
  349.4172     6.3600e-018
  349.4348     6.4180e-018
  349.4525     6.3610e-018
  349.4702     6.1930e-018
  349.4879     6.0530e-018
  349.5055     5.9780e-018
  349.5232     5.9070e-018
  349.5409     5.8080e-018
  349.5586     5.7210e-018
  349.5762     5.6660e-018
  349.5939     5.6210e-018
  349.6116     5.5830e-018
  349.6293     5.5470e-018
  349.6469     5.4370e-018
  349.6647     5.2200e-018
  349.6823     5.0440e-018
  349.7000     5.0820e-018
  349.7177     5.2490e-018
  349.7354     5.2640e-018
  349.7531     5.0320e-018
  349.7708     4.7840e-018
  349.7885     4.7270e-018
  349.8062     4.7700e-018
  349.8239     4.7010e-018
  349.8416     4.5400e-018
  349.8594     4.4870e-018
  349.8770     4.5760e-018
  349.8948     4.5870e-018
  349.9125     4.3730e-018
  349.9302     4.0970e-018
  349.9479     3.9930e-018
  349.9656     4.0550e-018
  349.9833     4.0930e-018
  350.0011     4.0300e-018
  350.0188     3.9570e-018
  350.0365     3.9280e-018
  350.0543     3.8750e-018
  350.0720     3.7780e-018
  350.0897     3.7290e-018
  350.1074     3.7650e-018
  350.1252     3.7680e-018
  350.1429     3.6640e-018
  350.1607     3.5340e-018
  350.1784     3.4710e-018
  350.1961     3.4250e-018
  350.2139     3.3450e-018
  350.2316     3.2810e-018
  350.2494     3.2730e-018
  350.2671     3.2450e-018
  350.2849     3.1740e-018
  350.3026     3.1480e-018
  350.3204     3.1900e-018
  350.3381     3.1850e-018
  350.3559     3.0770e-018
  350.3737     2.9850e-018
  350.3914     2.9740e-018
  350.4092     2.9370e-018
  350.4270     2.8140e-018
  350.4447     2.7430e-018
  350.4625     2.8080e-018
  350.4803     2.8480e-018
  350.4980     2.7360e-018
  350.5158     2.6260e-018
  350.5336     2.7080e-018
  350.5514     2.8590e-018
  350.5691     2.8690e-018
  350.5869     2.7760e-018
  350.6047     2.7270e-018
  350.6225     2.6820e-018
  350.6403     2.5160e-018
  350.6581     2.3330e-018
  350.6759     2.3510e-018
  350.6937     2.5330e-018
  350.7115     2.6020e-018
  350.7293     2.4430e-018
  350.7470     2.2360e-018
  350.7648     2.1780e-018
  350.7826     2.2570e-018
  350.8005     2.3570e-018
  350.8182     2.3780e-018
  350.8361     2.2810e-018
  350.8539     2.1160e-018
  350.8717     2.0310e-018
  350.8895     2.1150e-018
  350.9073     2.2510e-018
  350.9251     2.2360e-018
  350.9429     2.0560e-018
  350.9608     1.9540e-018
  350.9786     2.0630e-018
  350.9964     2.2250e-018
  351.0142     2.2020e-018
  351.0321     1.9810e-018
  351.0499     1.7880e-018
  351.0677     1.7630e-018
  351.0856     1.8370e-018
  351.1034     1.8910e-018
  351.1212     1.9250e-018
  351.1391     1.9800e-018
  351.1569     1.9950e-018
  351.1747     1.8880e-018
  351.1926     1.7540e-018
  351.2104     1.7270e-018
  351.2283     1.7810e-018
  351.2461     1.7960e-018
  351.2640     1.7440e-018
  351.2818     1.6910e-018
  351.2997     1.6360e-018
  351.3175     1.5570e-018
  351.3354     1.5590e-018
  351.3533     1.7370e-018
  351.3711     1.9310e-018
  351.3890     1.8840e-018
  351.4069     1.6330e-018
  351.4247     1.4960e-018
  351.4426     1.5930e-018
  351.4605     1.7190e-018
  351.4783     1.6910e-018
  351.4962     1.5910e-018
  351.5141     1.5690e-018
  351.5320     1.5950e-018
  351.5498     1.6050e-018
  351.5677     1.6280e-018
  351.5856     1.6630e-018
  351.6035     1.6170e-018
  351.6214     1.5030e-018
  351.6393     1.4900e-018
  351.6571     1.6260e-018
  351.6750     1.6950e-018
  351.6930     1.5540e-018
  351.7108     1.3920e-018
  351.7287     1.4470e-018
  351.7466     1.6440e-018
  351.7645     1.6930e-018
  351.7824     1.5200e-018
  351.8004     1.3290e-018
  351.8182     1.3040e-018
  351.8362     1.3940e-018
  351.8541     1.4610e-018
  351.8720     1.4370e-018
  351.8899     1.3890e-018
  351.9078     1.4120e-018
  351.9257     1.5110e-018
  351.9437     1.5840e-018
  351.9616     1.5340e-018
  351.9795     1.4170e-018
  351.9974     1.3780e-018
  352.0153     1.4300e-018
  352.0333     1.4430e-018
  352.0512     1.3860e-018
  352.0691     1.3830e-018
  352.0871     1.4970e-018
  352.1050     1.5790e-018
  352.1229     1.5050e-018
  352.1409     1.3970e-018
  352.1588     1.4240e-018
  352.1768     1.5080e-018
  352.1947     1.4510e-018
  352.2127     1.2930e-018
  352.2306     1.2720e-018
  352.2486     1.4370e-018
  352.2665     1.5590e-018
  352.2845     1.4740e-018
  352.3024     1.3290e-018
  352.3204     1.3340e-018
  352.3384     1.4300e-018
  352.3563     1.4130e-018
  352.3743     1.2520e-018
  352.3922     1.1170e-018
  352.4102     1.1740e-018
  352.4282     1.3680e-018
  352.4462     1.5230e-018
  352.4641     1.5310e-018
  352.4821     1.4140e-018
  352.5001     1.2860e-018
  352.5181     1.2280e-018
  352.5361     1.2390e-018
  352.5540     1.2910e-018
  352.5720     1.3710e-018
  352.5900     1.4520e-018
  352.6080     1.4740e-018
  352.6260     1.4030e-018
  352.6440     1.2960e-018
  352.6619     1.2520e-018
  352.6799     1.3120e-018
  352.6979     1.4260e-018
  352.7159     1.5240e-018
  352.7339     1.5540e-018
  352.7519     1.5150e-018
  352.7699     1.4510e-018
  352.7880     1.3960e-018
  352.8060     1.3340e-018
  352.8240     1.2380e-018
  352.8420     1.1880e-018
  352.8600     1.2980e-018
  352.8780     1.4990e-018
  352.8960     1.5520e-018
  352.9141     1.3790e-018
  352.9321     1.2150e-018
  352.9501     1.2720e-018
  352.9681     1.4220e-018
  352.9861     1.4200e-018
  353.0042     1.3040e-018
  353.0222     1.3050e-018
  353.0402     1.4340e-018
  353.0583     1.4610e-018
  353.0763     1.3460e-018
  353.0943     1.2970e-018
  353.1124     1.4040e-018
  353.1304     1.4990e-018
  353.1485     1.4460e-018
  353.1665     1.3680e-018
  353.1846     1.3800e-018
  353.2026     1.4000e-018
  353.2207     1.3620e-018
  353.2387     1.3860e-018
  353.2568     1.5180e-018
  353.2748     1.5720e-018
  353.2929     1.4260e-018
  353.3109     1.2890e-018
  353.3290     1.3750e-018
  353.3471     1.5460e-018
  353.3651     1.5310e-018
  353.3832     1.3950e-018
  353.4013     1.4020e-018
  353.4193     1.5350e-018
  353.4374     1.5550e-018
  353.4555     1.4450e-018
  353.4735     1.4230e-018
  353.4916     1.5040e-018
  353.5097     1.4830e-018
  353.5278     1.3500e-018
  353.5459     1.3440e-018
  353.5640     1.4950e-018
  353.5820     1.5430e-018
  353.6001     1.4010e-018
  353.6182     1.3500e-018
  353.6363     1.5460e-018
  353.6544     1.7280e-018
  353.6725     1.6490e-018
  353.6906     1.4630e-018
  353.7087     1.4490e-018
  353.7268     1.5810e-018
  353.7449     1.6340e-018
  353.7630     1.5580e-018
  353.7811     1.5110e-018
  353.7992     1.5800e-018
  353.8173     1.6960e-018
  353.8355     1.7480e-018
  353.8536     1.6800e-018
  353.8717     1.5530e-018
  353.8898     1.5150e-018
  353.9079     1.6170e-018
  353.9261     1.7080e-018
  353.9442     1.6520e-018
  353.9623     1.5720e-018
  353.9804     1.6700e-018
  353.9986     1.8710e-018
  354.0167     1.9150e-018
  354.0348     1.7930e-018
  354.0529     1.7660e-018
  354.0711     1.9270e-018
  354.0892     2.0990e-018
  354.1074     2.1170e-018
  354.1255     2.0440e-018
  354.1437     1.9900e-018
  354.1618     1.9710e-018
  354.1800     2.0000e-018
  354.1981     2.0780e-018
  354.2163     2.1450e-018
  354.2344     2.1680e-018
  354.2526     2.2330e-018
  354.2707     2.3810e-018
  354.2889     2.4950e-018
  354.3070     2.4920e-018
  354.3252     2.5000e-018
  354.3434     2.6390e-018
  354.3615     2.7730e-018
  354.3797     2.7370e-018
  354.3979     2.6710e-018
  354.4161     2.7770e-018
  354.4342     2.9950e-018
  354.4524     3.1630e-018
  354.4706     3.2890e-018
  354.4888     3.5000e-018
  354.5069     3.7320e-018
  354.5251     3.8940e-018
  354.5433     4.1200e-018
  354.5615     4.5700e-018
  354.5797     5.1130e-018
  354.5979     5.5240e-018
  354.6161     5.8510e-018
  354.6343     6.2970e-018
  354.6525     6.8920e-018
  354.6707     7.5180e-018
  354.6889     8.1360e-018
  354.7070     8.7660e-018
  354.7253     9.3490e-018
  354.7435     9.7950e-018
  354.7617     1.0140e-017
  354.7799     1.0380e-017
  354.7981     1.0420e-017
  354.8163     1.0260e-017
  354.8345     1.0120e-017
  354.8528     1.0110e-017
  354.8710     1.0030e-017
  354.8892     9.7320e-018
  354.9074     9.3680e-018
  354.9256     9.1060e-018
  354.9439     8.8850e-018
  354.9621     8.5860e-018
  354.9803     8.3000e-018
  354.9986     8.1920e-018
  355.0168     8.1950e-018
  355.0350     8.0730e-018
  355.0533     7.7540e-018
  355.0715     7.4260e-018
  355.0898     7.2350e-018
  355.1080     7.1050e-018
  355.1262     6.9290e-018
  355.1445     6.7250e-018
  355.1627     6.5540e-018
  355.1810     6.3980e-018
  355.1992     6.1770e-018
  355.2175     5.9420e-018
  355.2358     5.8180e-018
  355.2540     5.7880e-018
  355.2723     5.6910e-018
  355.2905     5.4560e-018
  355.3088     5.2060e-018
  355.3271     5.0500e-018
  355.3453     4.9100e-018
  355.3636     4.7120e-018
  355.3819     4.5540e-018
  355.4001     4.5330e-018
  355.4184     4.5360e-018
  355.4367     4.3920e-018
  355.4550     4.1330e-018
  355.4733     3.9320e-018
  355.4915     3.8730e-018
  355.5098     3.8710e-018
  355.5281     3.8220e-018
  355.5464     3.6980e-018
  355.5647     3.5420e-018
  355.5830     3.4460e-018
  355.6013     3.4340e-018
  355.6196     3.4040e-018
  355.6379     3.2680e-018
  355.6562     3.1240e-018
  355.6745     3.0740e-018
  355.6928     3.0290e-018
  355.7111     2.8270e-018
  355.7294     2.5850e-018
  355.7477     2.5460e-018
  355.7660     2.6730e-018
  355.7843     2.7060e-018
  355.8026     2.5480e-018
  355.8210     2.3700e-018
  355.8393     2.2570e-018
  355.8576     2.1510e-018
  355.8759     2.0830e-018
  355.8942     2.1560e-018
  355.9126     2.2600e-018
  355.9309     2.1660e-018
  355.9492     1.9240e-018
  355.9675     1.8240e-018
  355.9859     1.9050e-018
  356.0042     1.9370e-018
  356.0226     1.8220e-018
  356.0409     1.7070e-018
  356.0593     1.6580e-018
  356.0776     1.5910e-018
  356.0959     1.5040e-018
  356.1143     1.5010e-018
  356.1326     1.5460e-018
  356.1510     1.5050e-018
  356.1693     1.4090e-018
  356.1877     1.3870e-018
  356.2060     1.4060e-018
  356.2244     1.3430e-018
  356.2428     1.2450e-018
  356.2611     1.2400e-018
  356.2795     1.2840e-018
  356.2979     1.2330e-018
  356.3162     1.1160e-018
  356.3346     1.0740e-018
  356.3530     1.1150e-018
  356.3713     1.1560e-018
  356.3897     1.1820e-018
  356.4081     1.2210e-018
  356.4265     1.2120e-018
  356.4449     1.0950e-018
  356.4632     9.6030e-019
  356.4816     9.1540e-019
  356.5000     9.2500e-019
  356.5184     9.3590e-019
  356.5368     9.7200e-019
  356.5552     9.9670e-019
  356.5736     9.1850e-019
  356.5920     7.9900e-019
  356.6104     8.0910e-019
  356.6288     9.1060e-019
  356.6472     8.5600e-019
  356.6656     6.4130e-019
  356.6840     5.7630e-019
  356.7024     7.9430e-019
  356.7208     1.0150e-018
  356.7392     9.7290e-019
  356.7576     8.0810e-019
  356.7760     7.7830e-019
  356.7944     8.4280e-019
  356.8129     8.2060e-019
  356.8313     7.5440e-019
  356.8497     8.0430e-019
  356.8681     9.2150e-019
  356.8866     9.1900e-019
  356.9050     7.6790e-019
  356.9234     6.3670e-019
  356.9418     6.3470e-019
  356.9603     7.1080e-019
  356.9787     7.7700e-019
  356.9972     8.1170e-019
  357.0156     8.2410e-019
  357.0340     8.3050e-019
  357.0525     8.5080e-019
  357.0709     8.5530e-019
  357.0894     7.7090e-019
  357.1078     6.0370e-019
  357.1263     4.9890e-019
  357.1447     6.0080e-019
  357.1632     8.1470e-019
  357.1816     8.9490e-019
  357.2001     7.7480e-019
  357.2186     6.7210e-019
  357.2370     7.8070e-019
  357.2555     9.7170e-019
  357.2740     1.0090e-018
  357.2925     8.7650e-019
  357.3109     7.4490e-019
  357.3294     6.7910e-019
  357.3479     6.2320e-019
  357.3663     5.9460e-019
  357.3848     6.6380e-019
  357.4033     7.7280e-019
  357.4218     7.9490e-019
  357.4403     7.6400e-019
  357.4587     8.0370e-019
  357.4772     8.8470e-019
  357.4957     8.6540e-019
  357.5142     7.8190e-019
  357.5327     7.9330e-019
  357.5512     8.7230e-019
  357.5697     8.3460e-019
  357.5882     6.9240e-019
  357.6067     6.4670e-019
  357.6252     7.2000e-019
  357.6437     7.4020e-019
  357.6622     6.7590e-019
  357.6807     6.7410e-019
  357.6992     7.5180e-019
  357.7177     7.6960e-019
  357.7363     7.5160e-019
  357.7548     8.6520e-019
  357.7733     1.0560e-018
  357.7918     1.0460e-018
  357.8103     7.9650e-019
  357.8289     6.1960e-019
  357.8474     6.9830e-019
  357.8659     8.3820e-019
  357.8845     8.2470e-019
  357.9030     7.3240e-019
  357.9215     7.3540e-019
  357.9400     8.2030e-019
  357.9586     8.6500e-019
  357.9771     8.5090e-019
  357.9957     8.4920e-019
  358.0142     8.8410e-019
  358.0328     9.1820e-019
  358.0513     9.2190e-019
  358.0699     9.1140e-019
  358.0884     9.2150e-019
  358.1070     9.9210e-019
  358.1255     1.0850e-018
  358.1441     1.0940e-018
  358.1626     9.9810e-019
  358.1812     9.0130e-019
  358.1998     8.9720e-019
  358.2183     9.6230e-019
  358.2369     1.0270e-018
  358.2554     1.0360e-018
  358.2740     9.6310e-019
  358.2926     8.5200e-019
  358.3112     8.2280e-019
  358.3297     9.3830e-019
  358.3483     1.0680e-018
  358.3669     1.0580e-018
  358.3855     9.8190e-019
  358.4040     9.9020e-019
  358.4226     1.0370e-018
  358.4413     9.7190e-019
  358.4598     8.6560e-019
  358.4784     9.3750e-019
  358.4970     1.1580e-018
  358.5156     1.2330e-018
  358.5342     1.0580e-018
  358.5528     9.1730e-019
  358.5714     1.0340e-018
  358.5900     1.2500e-018
  358.6086     1.2900e-018
  358.6272     1.1660e-018
  358.6458     1.0870e-018
  358.6644     1.1250e-018
  358.6830     1.1670e-018
  358.7017     1.1480e-018
  358.7203     1.1350e-018
  358.7389     1.2000e-018
  358.7575     1.2730e-018
  358.7761     1.2480e-018
  358.7948     1.1450e-018
  358.8134     1.0790e-018
  358.8320     1.1180e-018
  358.8506     1.2060e-018
  358.8693     1.2570e-018
  358.8879     1.2750e-018
  358.9066     1.3130e-018
  358.9252     1.3710e-018
  358.9438     1.4000e-018
  358.9625     1.3980e-018
  358.9811     1.4120e-018
  358.9998     1.4580e-018
  359.0184     1.5070e-018
  359.0371     1.5190e-018
  359.0557     1.4950e-018
  359.0744     1.4780e-018
  359.0930     1.5160e-018
  359.1117     1.6080e-018
  359.1303     1.6750e-018
  359.1490     1.6470e-018
  359.1677     1.5710e-018
  359.1863     1.5590e-018
  359.2050     1.6100e-018
  359.2237     1.6460e-018
  359.2423     1.6580e-018
  359.2610     1.6960e-018
  359.2797     1.7540e-018
  359.2984     1.7520e-018
  359.3170     1.7240e-018
  359.3357     1.7830e-018
  359.3544     1.9250e-018
  359.3731     1.9940e-018
  359.3918     1.9100e-018
  359.4105     1.8010e-018
  359.4292     1.8070e-018
  359.4478     1.8930e-018
  359.4665     1.9450e-018
  359.4852     1.9410e-018
  359.5039     1.9180e-018
  359.5226     1.9270e-018
  359.5413     1.9760e-018
  359.5600     2.0100e-018
  359.5787     1.9730e-018
  359.5974     1.9170e-018
  359.6162     1.9710e-018
  359.6349     2.1510e-018
  359.6536     2.3010e-018
  359.6723     2.2650e-018
  359.6910     2.1180e-018
  359.7097     2.0360e-018
  359.7285     2.0660e-018
  359.7472     2.1330e-018
  359.7659     2.2250e-018
  359.7846     2.3360e-018
  359.8034     2.3790e-018
  359.8221     2.2950e-018
  359.8408     2.1740e-018
  359.8596     2.1810e-018
  359.8783     2.3210e-018
  359.8970     2.4530e-018
  359.9158     2.4940e-018
  359.9345     2.4800e-018
  359.9533     2.4690e-018
  359.9720     2.4510e-018
  359.9908     2.4360e-018
  360.0095     2.4510e-018
  360.0283     2.5130e-018
  360.0470     2.5910e-018
  360.0658     2.5970e-018
  360.0845     2.5310e-018
  360.1033     2.4990e-018
  360.1220     2.5940e-018
  360.1408     2.7230e-018
  360.1596     2.7020e-018
  360.1783     2.5310e-018
  360.1971     2.4310e-018
  360.2159     2.5350e-018
  360.2347     2.6870e-018
  360.2534     2.7190e-018
  360.2722     2.6560e-018
  360.2910     2.6450e-018
  360.3098     2.6920e-018
  360.3286     2.7210e-018
  360.3474     2.7340e-018
  360.3661     2.7710e-018
  360.3849     2.7980e-018
  360.4037     2.7780e-018
  360.4225     2.7620e-018
  360.4413     2.7880e-018
  360.4601     2.7800e-018
  360.4789     2.7050e-018
  360.4977     2.6910e-018
  360.5165     2.8350e-018
  360.5353     2.9810e-018
  360.5541     2.9360e-018
  360.5729     2.7810e-018
  360.5918     2.7410e-018
  360.6105     2.8560e-018
  360.6294     2.9500e-018
  360.6482     2.8810e-018
  360.6670     2.7280e-018
  360.6858     2.6520e-018
  360.7046     2.6990e-018
  360.7235     2.7870e-018
  360.7423     2.8090e-018
  360.7611     2.7420e-018
  360.7800     2.6410e-018
  360.7988     2.5630e-018
  360.8176     2.5250e-018
  360.8365     2.4960e-018
  360.8553     2.4740e-018
  360.8742     2.4780e-018
  360.8930     2.5230e-018
  360.9118     2.6170e-018
  360.9307     2.6980e-018
  360.9495     2.6810e-018
  360.9684     2.5400e-018
  360.9872     2.3950e-018
  361.0061     2.3940e-018
  361.0249     2.4680e-018
  361.0438     2.4370e-018
  361.0627     2.3070e-018
  361.0815     2.2860e-018
  361.1004     2.4290e-018
  361.1193     2.4850e-018
  361.1381     2.3020e-018
  361.1570     2.0890e-018
  361.1759     2.1130e-018
  361.1948     2.3040e-018
  361.2136     2.3740e-018
  361.2325     2.2380e-018
  361.2514     2.0570e-018
  361.2703     1.9800e-018
  361.2891     2.0190e-018
  361.3080     2.0980e-018
  361.3269     2.1370e-018
  361.3458     2.0760e-018
  361.3647     1.9790e-018
  361.3836     1.9740e-018
  361.4025     2.0360e-018
  361.4214     1.9950e-018
  361.4403     1.8400e-018
  361.4592     1.7770e-018
  361.4781     1.8770e-018
  361.4970     1.9210e-018
  361.5159     1.7770e-018
  361.5348     1.6670e-018
  361.5537     1.7910e-018
  361.5726     1.9760e-018
  361.5916     1.9420e-018
  361.6105     1.7640e-018
  361.6294     1.7240e-018
  361.6483     1.8350e-018
  361.6672     1.8650e-018
  361.6862     1.7570e-018
  361.7051     1.6860e-018
  361.7240     1.7440e-018
  361.7429     1.8300e-018
  361.7619     1.8570e-018
  361.7808     1.8120e-018
  361.7998     1.7080e-018
  361.8187     1.5930e-018
  361.8377     1.6040e-018
  361.8566     1.7630e-018
  361.8755     1.8590e-018
  361.8945     1.7250e-018
  361.9134     1.5230e-018
  361.9324     1.4980e-018
  361.9513     1.5940e-018
  361.9703     1.5770e-018
  361.9892     1.4520e-018
  362.0082     1.4240e-018
  362.0272     1.5180e-018
  362.0461     1.5460e-018
  362.0651     1.4590e-018
  362.0841     1.4170e-018
  362.1030     1.4720e-018
  362.1220     1.4770e-018
  362.1410     1.3660e-018
  362.1600     1.2840e-018
  362.1789     1.3480e-018
  362.1979     1.4660e-018
  362.2169     1.4990e-018
  362.2359     1.4270e-018
  362.2549     1.3100e-018
  362.2738     1.2140e-018
  362.2929     1.2150e-018
  362.3118     1.3260e-018
  362.3308     1.4170e-018
  362.3498     1.3430e-018
  362.3688     1.1760e-018
  362.3878     1.1240e-018
  362.4068     1.1930e-018
  362.4258     1.1910e-018
  362.4448     1.0750e-018
  362.4638     1.0080e-018
  362.4828     1.0950e-018
  362.5019     1.1930e-018
  362.5209     1.1860e-018
  362.5399     1.1700e-018
  362.5589     1.2590e-018
  362.5779     1.3570e-018
  362.5969     1.3080e-018
  362.6160     1.1700e-018
  362.6350     1.0900e-018
  362.6540     1.0760e-018
  362.6730     1.0280e-018
  362.6921     9.6130e-019
  362.7111     9.8050e-019
  362.7301     1.0740e-018
  362.7492     1.1060e-018
  362.7682     1.0360e-018
  362.7873     9.7970e-019
  362.8063     1.0300e-018
  362.8254     1.1380e-018
  362.8444     1.2040e-018
  362.8634     1.1970e-018
  362.8825     1.1440e-018
  362.9016     1.0970e-018
  362.9206     1.1120e-018
  362.9397     1.1570e-018
  362.9587     1.1330e-018
  362.9778     1.0050e-018
  362.9968     9.2580e-019
  363.0159     9.9880e-019
  363.0350     1.0710e-018
  363.0540     9.7410e-019
  363.0731     8.3890e-019
  363.0922     9.0510e-019
  363.1113     1.0970e-018
  363.1303     1.0960e-018
  363.1494     8.5810e-019
  363.1685     7.0090e-019
  363.1876     7.8710e-019
  363.2067     9.2500e-019
  363.2258     9.4420e-019
  363.2448     9.4990e-019
  363.2639     1.0230e-018
  363.2830     1.0140e-018
  363.3021     8.4210e-019
  363.3212     7.1020e-019
  363.3403     7.7220e-019
  363.3594     8.8700e-019
  363.3785     8.6090e-019
  363.3976     7.6670e-019
  363.4167     7.6300e-019
  363.4359     8.1700e-019
  363.4549     8.3800e-019
  363.4741     8.6740e-019
  363.4932     9.1650e-019
  363.5123     9.0310e-019
  363.5314     8.4010e-019
  363.5505     8.7580e-019
  363.5697     1.0080e-018
  363.5888     1.0230e-018
  363.6079     8.5240e-019
  363.6270     7.3810e-019
  363.6462     8.2470e-019
  363.6653     9.0720e-019
  363.6845     8.1280e-019
  363.7036     7.0310e-019
  363.7227     7.4300e-019
  363.7419     8.1060e-019
  363.7610     7.5310e-019
  363.7801     6.7190e-019
  363.7993     7.1790e-019
  363.8184     7.9720e-019
  363.8376     7.6880e-019
  363.8567     7.0280e-019
  363.8759     7.2160e-019
  363.8951     7.7230e-019
  363.9142     7.6620e-019
  363.9334     7.5400e-019
  363.9526     7.8710e-019
  363.9717     8.0590e-019
  363.9909     7.8640e-019
  364.0101     8.1890e-019
  364.0292     9.1000e-019
  364.0484     9.4540e-019
  364.0676     9.2450e-019
  364.0868     9.8200e-019
  364.1059     1.1110e-018
  364.1251     1.1400e-018
  364.1443     1.0430e-018
  364.1635     9.9680e-019
  364.1827     1.0500e-018
  364.2019     1.0180e-018
  364.2210     8.5460e-019
  364.2402     7.6140e-019
  364.2595     8.4840e-019
  364.2786     9.7420e-019
  364.2979     1.0300e-018
  364.3170     1.0990e-018
  364.3363     1.1950e-018
  364.3555     1.1660e-018
  364.3747     9.9730e-019
  364.3939     9.0510e-019
  364.4131     9.7610e-019
  364.4323     1.0180e-018
  364.4515     8.8460e-019
  364.4707     7.4210e-019
  364.4900     7.9350e-019
  364.5092     9.7300e-019
  364.5284     1.1090e-018
  364.5476     1.1440e-018
  364.5669     1.0810e-018
  364.5861     9.2070e-019
  364.6053     7.7100e-019
  364.6246     8.0620e-019
  364.6438     9.8960e-019
  364.6630     1.0460e-018
  364.6823     8.5670e-019
  364.7015     6.5790e-019
  364.7207     6.9060e-019
  364.7400     8.5470e-019
  364.7592     9.1620e-019
  364.7785     8.3610e-019
  364.7977     7.8000e-019
  364.8170     8.2690e-019
  364.8363     9.0080e-019
  364.8555     9.0970e-019
  364.8748     8.4770e-019
  364.8940     7.6380e-019
  364.9133     7.2500e-019
  364.9326     7.5130e-019
  364.9519     7.8980e-019
  364.9711     7.8990e-019
  364.9904     7.3580e-019
  365.0097     6.6900e-019
  365.0289     6.4190e-019
  365.0482     6.8410e-019
  365.0675     7.7440e-019
  365.0868     8.3990e-019
  365.1061     8.2560e-019
  365.1253     7.8500e-019
  365.1446     8.1260e-019
  365.1640     8.7410e-019
  365.1832     8.4390e-019
  365.2025     7.2640e-019
  365.2218     6.7140e-019
  365.2411     7.4440e-019
  365.2604     8.0350e-019
  365.2797     7.5000e-019
  365.2990     7.0360e-019
  365.3183     8.0250e-019
  365.3376     9.8030e-019
  365.3570     1.0370e-018
  365.3763     9.6000e-019
  365.3956     9.1930e-019
  365.4149     1.0010e-018
  365.4342     1.1210e-018
  365.4536     1.1320e-018
  365.4729     1.0170e-018
  365.4922     9.0120e-019
  365.5115     8.8070e-019
  365.5309     9.0330e-019
  365.5502     8.4820e-019
  365.5695     7.5330e-019
  365.5889     7.8510e-019
  365.6082     9.5140e-019
  365.6275     1.0230e-018
  365.6469     8.8590e-019
  365.6662     7.5710e-019
  365.6856     8.3140e-019
  365.7049     9.7200e-019
  365.7243     9.3090e-019
  365.7436     7.5820e-019
  365.7630     6.7990e-019
  365.7823     7.2020e-019
  365.8017     7.2580e-019
  365.8211     6.9990e-019
  365.8404     7.6360e-019
  365.8598     8.9220e-019
  365.8791     9.5110e-019
  365.8985     9.4250e-019
  365.9179     9.4580e-019
  365.9373     9.1050e-019
  365.9566     7.7300e-019
  365.9760     6.7680e-019
  365.9954     7.5640e-019
  366.0148     8.6370e-019
  366.0342     7.9850e-019
  366.0535     6.6750e-019
  366.0729     6.7890e-019
  366.0923     7.7440e-019
  366.1117     7.9840e-019
  366.1311     8.1400e-019
  366.1505     9.3540e-019
  366.1699     1.0190e-018
  366.1893     8.7550e-019
  366.2087     6.9640e-019
  366.2281     7.8870e-019
  366.2475     1.0410e-018
  366.2669     1.0900e-018
  366.2863     9.1560e-019
  366.3058     8.2250e-019
  366.3251     8.9970e-019
  366.3446     9.5720e-019
  366.3640     9.4480e-019
  366.3834     1.0230e-018
  366.4028     1.1950e-018
  366.4223     1.2430e-018
  366.4417     1.0890e-018
  366.4611     9.5070e-019
  366.4805     9.7190e-019
  366.5000     1.0660e-018
  366.5194     1.0760e-018
  366.5388     9.8950e-019
  366.5583     9.0640e-019
  366.5777     9.0040e-019
  366.5972     9.8320e-019
  366.6166     1.0620e-018
  366.6361     1.0610e-018
  366.6555     1.0230e-018
  366.6750     1.0510e-018
  366.6944     1.1160e-018
  366.7139     1.0820e-018
  366.7333     9.8050e-019
  366.7528     1.0180e-018
  366.7723     1.2070e-018
  366.7917     1.2640e-018
  366.8112     1.0590e-018
  366.8307     8.7140e-019
  366.8501     9.5600e-019
  366.8696     1.1670e-018
  366.8891     1.2360e-018
  366.9085     1.1850e-018
  366.9280     1.2100e-018
  366.9475     1.3020e-018
  366.9670     1.3030e-018
  366.9865     1.2390e-018
  367.0060     1.2820e-018
  367.0254     1.3830e-018
  367.0449     1.3460e-018
  367.0644     1.2110e-018
  367.0839     1.2310e-018
  367.1034     1.4500e-018
  367.1229     1.5890e-018
  367.1424     1.4710e-018
  367.1619     1.2890e-018
  367.1814     1.2720e-018
  367.2009     1.3320e-018
  367.2204     1.2670e-018
  367.2400     1.1210e-018
  367.2595     1.1160e-018
  367.2790     1.2990e-018
  367.2985     1.4690e-018
  367.3180     1.4860e-018
  367.3375     1.4230e-018
  367.3571     1.3970e-018
  367.3766     1.4410e-018
  367.3961     1.5400e-018
  367.4156     1.6340e-018
  367.4352     1.6090e-018
  367.4547     1.4340e-018
  367.4743     1.2590e-018
  367.4938     1.2590e-018
  367.5133     1.3590e-018
  367.5329     1.3940e-018
  367.5524     1.3740e-018
  367.5720     1.4500e-018
  367.5915     1.5870e-018
  367.6111     1.5700e-018
  367.6306     1.3990e-018
  367.6502     1.2850e-018
  367.6697     1.3130e-018
  367.6893     1.3710e-018
  367.7088     1.3820e-018
  367.7284     1.4160e-018
  367.7480     1.4630e-018
  367.7675     1.4150e-018
  367.7871     1.3110e-018
  367.8067     1.3290e-018
  367.8262     1.4780e-018
  367.8458     1.5620e-018
  367.8654     1.4920e-018
  367.8850     1.4110e-018
  367.9046     1.3890e-018
  367.9242     1.3470e-018
  367.9438     1.2900e-018
  367.9633     1.3460e-018
  367.9829     1.5170e-018
  368.0025     1.6070e-018
  368.0221     1.5450e-018
  368.0417     1.4830e-018
  368.0613     1.5200e-018
  368.0809     1.5430e-018
  368.1005     1.4660e-018
  368.1201     1.3860e-018
  368.1397     1.4320e-018
  368.1593     1.5450e-018
  368.1789     1.5670e-018
  368.1986     1.4760e-018
  368.2182     1.3790e-018
  368.2378     1.3750e-018
  368.2574     1.4160e-018
  368.2770     1.3820e-018
  368.2966     1.2340e-018
  368.3163     1.0790e-018
  368.3359     1.0320e-018
  368.3555     1.0740e-018
  368.3752     1.1170e-018
  368.3948     1.1660e-018
  368.4144     1.3020e-018
  368.4341     1.4940e-018
  368.4537     1.5730e-018
  368.4734     1.4630e-018
  368.4930     1.2870e-018
  368.5126     1.1700e-018
  368.5323     1.1080e-018
  368.5519     1.0560e-018
  368.5716     9.9900e-019
  368.5912     9.7470e-019
  368.6109     1.0250e-018
  368.6306     1.1580e-018
  368.6502     1.2890e-018
  368.6699     1.2940e-018
  368.6896     1.2010e-018
  368.7092     1.1950e-018
  368.7289     1.3500e-018
  368.7486     1.4490e-018
  368.7682     1.2720e-018
  368.7879     9.4590e-019
  368.8076     7.9710e-019
  368.8273     8.9440e-019
  368.8470     1.0010e-018
  368.8667     9.3250e-019
  368.8863     8.2080e-019
  368.9060     8.6450e-019
  368.9257     1.0160e-018
  368.9454     1.0550e-018
  368.9651     9.3280e-019
  368.9848     8.4650e-019
  369.0045     9.3280e-019
  369.0242     1.0240e-018
  369.0439     9.1110e-019
  369.0636     7.3080e-019
  369.0833     7.8750e-019
  369.1030     1.0280e-018
  369.1227     1.0960e-018
  369.1424     8.8790e-019
  369.1622     7.4900e-019
  369.1819     8.9610e-019
  369.2016     1.0740e-018
  369.2213     1.0030e-018
  369.2411     8.3010e-019
  369.2608     8.3660e-019
  369.2805     9.8870e-019
  369.3002     1.0490e-018
  369.3200     9.5900e-019
  369.3397     8.5460e-019
  369.3595     8.4340e-019
  369.3792     9.3210e-019
  369.3989     1.0400e-018
  369.4187     1.0400e-018
  369.4384     8.7830e-019
  369.4582     7.2550e-019
  369.4779     7.5440e-019
  369.4977     8.3120e-019
  369.5174     7.6310e-019
  369.5372     6.9450e-019
  369.5569     8.7550e-019
  369.5767     1.0990e-018
  369.5964     9.6150e-019
  369.6162     6.0220e-019
  369.6360     5.2750e-019
  369.6558     7.5970e-019
  369.6755     8.2540e-019
  369.6953     6.1310e-019
  369.7151     5.3120e-019
  369.7348     7.2290e-019
  369.7546     8.3070e-019
  369.7744     7.0470e-019
  369.7942     6.7750e-019
  369.8140     8.6880e-019
  369.8338     9.3630e-019
  369.8536     7.1950e-019
  369.8734     5.5550e-019
  369.8931     6.1870e-019
  369.9130     6.5000e-019
  369.9327     5.3760e-019
  369.9525     5.2940e-019
  369.9724     7.0870e-019
  369.9922     7.7770e-019
  370.0120     6.1830e-019
  370.0318     5.0470e-019
  370.0516     6.1140e-019
  370.0714     7.3780e-019
  370.0912     7.1610e-019
  370.1110     6.7860e-019
  370.1309     6.8650e-019
  370.1507     6.4760e-019
  370.1705     6.0360e-019
  370.1903     6.9580e-019
  370.2101     7.9010e-019
  370.2300     6.4520e-019
  370.2498     4.0720e-019
  370.2697     4.0480e-019
  370.2895     7.1410e-019
  370.3093     8.0530e-019
  370.3292     5.7960e-019
  370.3490     4.4710e-019
  370.3688     6.1550e-019
  370.3887     8.1370e-019
  370.4085     7.8140e-019
  370.4284     6.5220e-019
  370.4482     5.8470e-019
  370.4681     5.1270e-019
  370.4880     4.3740e-019
  370.5078     4.9310e-019
  370.5277     6.3540e-019
  370.5476     6.3710e-019
  370.5674     4.8840e-019
  370.5873     4.3080e-019
  370.6072     5.8120e-019
  370.6270     7.2110e-019
  370.6469     6.6710e-019
  370.6668     5.4230e-019
  370.6867     4.9130e-019
  370.7065     4.7960e-019
  370.7264     4.3950e-019
  370.7463     3.9910e-019
  370.7662     4.2000e-019
  370.7861     4.7680e-019
  370.8060     5.1610e-019
  370.8259     5.3360e-019
  370.8458     5.4260e-019
  370.8656     5.5560e-019
  370.8856     5.8620e-019
  370.9055     6.1660e-019
  370.9254     5.9700e-019
  370.9453     5.3070e-019
  370.9652     4.9490e-019
  370.9851     5.0470e-019
  371.0050     4.8720e-019
  371.0249     4.1650e-019
  371.0448     4.0990e-019
  371.0648     5.3490e-019
  371.0847     6.6150e-019
  371.1046     6.2880e-019
  371.1245     4.4610e-019
  371.1445     2.7360e-019
  371.1644     2.4020e-019
  371.1843     3.4180e-019
  371.2043     4.8640e-019
  371.2242     5.6820e-019
  371.2442     5.4420e-019
  371.2641     4.6660e-019
  371.2840     4.1680e-019
  371.3040     3.8430e-019
  371.3239     3.5900e-019
  371.3439     4.0420e-019
  371.3638     5.5490e-019
  371.3838     7.0060e-019
  371.4037     6.8100e-019
  371.4237     4.8440e-019
  371.4437     2.6140e-019
  371.4636     1.4710e-019
  371.4836     1.8150e-019
  371.5036     3.1430e-019
  371.5235     4.0430e-019
  371.5435     2.9550e-019
  371.5635     1.0810e-019
  371.5834     1.8680e-019
  371.6034     5.8490e-019
  371.6234     8.9460e-019
  371.6434     7.6320e-019
  371.6634     4.4550e-019
  371.6833     3.8900e-019
  371.7033     5.1650e-019
  371.7233     4.6040e-019
  371.7433     2.8340e-019
  371.7633     3.5180e-019
  371.7833     6.2650e-019
  371.8033     6.6130e-019
  371.8233     3.7910e-019
  371.8433     2.2900e-019
  371.8633     4.1230e-019
  371.8833     5.7090e-019
  371.9033     4.6080e-019
  371.9234     3.6050e-019
  371.9434     5.1580e-019
  371.9634     6.7930e-019
  371.9834     5.4110e-019
  372.0034     3.1890e-019
  372.0234     3.5040e-019
  372.0435     5.0920e-019
  372.0635     4.5110e-019
  372.0835     2.3360e-019
  372.1035     2.1280e-019
  372.1236     4.4860e-019
  372.1436     6.2790e-019
  372.1637     5.3720e-019
  372.1837     3.8280e-019
  372.2037     4.3280e-019
  372.2238     6.0660e-019
  372.2438     6.5720e-019
  372.2639     5.1880e-019
  372.2839     3.8010e-019
  372.3040     4.0180e-019
  372.3240     5.2740e-019
  372.3441     6.1060e-019
  372.3641     6.0290e-019
  372.3842     5.5170e-019
  372.4043     4.6410e-019
  372.4244     3.6270e-019
  372.4444     3.9780e-019
  372.4645     6.4430e-019
  372.4846     8.2280e-019
  372.5046     6.1190e-019
  372.5247     1.9540e-019
  372.5448     8.7330e-020
  372.5649     3.9000e-019
  372.5849     6.3350e-019
  372.6050     5.4590e-019
  372.6251     4.2080e-019
  372.6452     5.1270e-019
  372.6653     5.9500e-019
  372.6854     3.9470e-019
  372.7055     1.0280e-019
  372.7256     5.5100e-020
  372.7457     2.1190e-019
  372.7658     3.0360e-019
  372.7859     2.8860e-019
  372.8060     2.8140e-019
  372.8261     3.1090e-019
  372.8462     3.3200e-019
  372.8664     4.0210e-019
  372.8865     5.3050e-019
  372.9066     5.8700e-019
  372.9267     5.0510e-019
  372.9468     3.9480e-019
  372.9669     3.2240e-019
  372.9871     2.1340e-019
  373.0072     1.2160e-019
  373.0273     1.9550e-019
  373.0475     3.8850e-019
  373.0676     4.6800e-019
  373.0878     4.0170e-019
  373.1079     3.7700e-019
  373.1280     4.0940e-019
  373.1482     3.3870e-019
  373.1683     1.8070e-019
  373.1885     1.7520e-019
  373.2086     3.1400e-019
  373.2288     3.6760e-019
  373.2489     3.3170e-019
  373.2691     3.8550e-019
  373.2892     4.7360e-019
  373.3094     3.4680e-019
  373.3296     1.4400e-019
  373.3497     1.9130e-019
  373.3699     4.1170e-019
  373.3901     3.9100e-019
  373.4102     1.5540e-019
  373.4304     1.7710e-019
  373.4506     5.1190e-019
  373.4708     6.3340e-019
  373.4909     3.5370e-019
  373.5111     1.8480e-019
  373.5313     4.3070e-019
  373.5515     6.8170e-019
  373.5717     5.0920e-019
  373.5919     2.0820e-019
  373.6121     2.3320e-019
  373.6323     4.5290e-019
  373.6525     4.7210e-019
  373.6727     3.1810e-019
  373.6929     3.2450e-019
  373.7131     4.9960e-019
  373.7333     5.6150e-019
  373.7535     4.5520e-019
  373.7737     4.4750e-019
  373.7939     6.0640e-019
  373.8142     7.0840e-019
  373.8344     5.5890e-019
  373.8546     3.0650e-019
  373.8748     2.4180e-019
  373.8950     3.9960e-019
  373.9152     5.6090e-019
  373.9355     5.4260e-019
  373.9557     4.4260e-019
  373.9760     5.0900e-019
  373.9962     7.5320e-019
  374.0164     9.0610e-019
  374.0367     8.1990e-019
  374.0569     7.1280e-019
  374.0772     7.4210e-019
  374.0974     7.5170e-019
  374.1177     5.8950e-019
  374.1379     4.8070e-019
  374.1582     6.7560e-019
  374.1784     9.5820e-019
  374.1987     8.7290e-019
  374.2189     4.7600e-019
  374.2392     2.8730e-019
  374.2594     4.9720e-019
  374.2797     7.4120e-019
  374.3000     7.4580e-019
  374.3203     6.8530e-019
  374.3405     7.3300e-019
  374.3608     7.7230e-019
  374.3811     7.0740e-019
  374.4014     7.1230e-019
  374.4217     8.6170e-019
  374.4419     9.4210e-019
  374.4622     8.2160e-019
  374.4825     6.8720e-019
  374.5028     7.3490e-019
  374.5231     8.2160e-019
  374.5434     7.8130e-019
  374.5637     7.3170e-019
  374.5840     8.3210e-019
  374.6043     9.6730e-019
  374.6246     9.5850e-019
  374.6449     8.5730e-019
  374.6652     8.1100e-019
  374.6855     7.8650e-019
  374.7058     7.2490e-019
  374.7262     7.4860e-019
  374.7465     9.2980e-019
  374.7668     1.0710e-018
  374.7871     9.6620e-019
  374.8074     7.6810e-019
  374.8277     7.7170e-019
  374.8481     9.2150e-019
  374.8684     9.0470e-019
  374.8887     6.6390e-019
  374.9091     4.7740e-019
  374.9294     5.5320e-019
  374.9498     7.2100e-019
  374.9701     7.1500e-019
  374.9904     5.7510e-019
  375.0108     5.5400e-019
  375.0311     7.2590e-019
  375.0515     9.0390e-019
  375.0718     8.7510e-019
  375.0922     6.9970e-019
  375.1125     5.6790e-019
  375.1329     5.5180e-019
  375.1533     6.0190e-019
  375.1736     6.3320e-019
  375.1940     6.5180e-019
  375.2144     6.4590e-019
  375.2347     6.0650e-019
  375.2551     5.8840e-019
  375.2755     5.9420e-019
  375.2959     5.4700e-019
  375.3162     4.4430e-019
  375.3366     4.4660e-019
  375.3570     6.2330e-019
  375.3774     7.7370e-019
  375.3978     7.1130e-019
  375.4182     5.7730e-019
  375.4385     5.9520e-019
  375.4589     6.5040e-019
  375.4793     5.2920e-019
  375.4997     3.2770e-019
  375.5201     2.9090e-019
  375.5405     3.7930e-019
  375.5610     4.0300e-019
  375.5814     4.0680e-019
  375.6018     5.4740e-019
  375.6222     6.6350e-019
  375.6426     4.5490e-019
  375.6630     5.9190e-020
  375.6834    -3.8940e-020
  375.7038     2.6730e-019
  375.7243     5.7840e-019
  375.7447     6.1940e-019
  375.7651     5.6640e-019
  375.7855     5.6520e-019
  375.8060     5.2170e-019
  375.8264     3.7930e-019
  375.8469     2.9410e-019
  375.8673     3.4420e-019
  375.8877     3.8680e-019
  375.9082     3.2820e-019
  375.9286     2.6360e-019
  375.9491     2.5250e-019
  375.9695     2.8330e-019
  375.9900     3.1700e-019
  376.0104     3.3810e-019
  376.0309     2.4680e-019
  376.0513     3.6570e-020
  376.0718    -6.2890e-020
  376.0923     9.0220e-020
  376.1127     3.4560e-019
  376.1332     4.0930e-019
  376.1537     3.0170e-019
  376.1742     2.7610e-019
  376.1946     3.4910e-019
  376.2151     3.0410e-019
  376.2356     1.2220e-019
  376.2561     4.0730e-020
  376.2765     1.8860e-019
  376.2970     3.7460e-019
  376.3175     3.4510e-019
  376.3380     1.4910e-019
  376.3585     8.0460e-020
  376.3790     2.8740e-019
  376.3995     5.4350e-019
  376.4200     5.3540e-019
  376.4405     2.8280e-019
  376.4610     1.8730e-019
  376.4815     4.0470e-019
  376.5020     6.6920e-019
  376.5225     6.7030e-019
  376.5430     4.7610e-019
  376.5636     2.9380e-019
  376.5841     1.9050e-019
  376.6046     1.3590e-019
  376.6251     2.2080e-019
  376.6456     4.7470e-019
  376.6661     5.8130e-019
  376.6867     3.4480e-019
  376.7072     6.6250e-020
  376.7277     1.1140e-019
  376.7483     3.6080e-019
  376.7688     4.0200e-019
  376.7893     1.9080e-019
  376.8099     6.1640e-020
  376.8304     1.7580e-019
  376.8510     3.2370e-019
  376.8715     3.3210e-019
  376.8921     3.1000e-019
  376.9126     3.5460e-019
  376.9332     3.7140e-019
  376.9537     3.0750e-019
  376.9743     2.0960e-019
  376.9949     1.4340e-019
  377.0154     3.7100e-020
  377.0360    -5.7050e-020
  377.0565     7.3450e-020
  377.0771     4.6940e-019
  377.0977     8.2080e-019
  377.1183     6.8290e-019
  377.1389     1.2830e-019
  377.1594    -2.5650e-019
  377.1800    -9.8240e-020
  377.2006     3.6280e-019
  377.2212     5.6510e-019
  377.2418     3.8260e-019
  377.2624     1.4510e-019
  377.2830     9.6360e-020
  377.3036     1.7090e-019
  377.3241     2.4670e-019
  377.3447     2.7880e-019
  377.3653     1.8620e-019
  377.3860    -5.0180e-020
  377.4065    -1.5380e-019
  377.4272     1.1660e-019
  377.4478     5.0200e-019
  377.4684     4.9650e-019
  377.4890     1.7300e-019
  377.5096     6.9440e-020
  377.5303     3.4570e-019
  377.5509     5.3100e-019
  377.5715     3.2740e-019
  377.5921     3.9510e-020
  377.6128    -4.4900e-020
  377.6334    -9.7200e-020
  377.6540    -2.4340e-019
  377.6746    -2.2000e-019
  377.6953     1.5040e-019
  377.7159     5.3140e-019
  377.7366     6.1710e-019
  377.7572     5.7540e-019
  377.7779     6.2880e-019
  377.7985     5.8160e-019
  377.8192     2.8460e-019
  377.8398     3.6320e-020
  377.8605     1.1320e-019
  377.8811     3.1590e-019
  377.9018     2.9280e-019
  377.9225     1.8370e-019
  377.9431     3.1760e-019
  377.9638     5.5230e-019
  377.9844     4.2070e-019
  378.0051    -4.2850e-020
  378.0258    -2.6020e-019
  378.0465     6.8550e-020
  378.0672     5.1660e-019
  378.0878     4.9180e-019
  378.1085     4.7460e-020
  378.1292    -2.4740e-019
  378.1499    -8.4820e-020
  378.1706     2.2560e-019
  378.1913     3.2490e-019
  378.2120     1.9550e-019
  378.2327     1.5090e-019
  378.2534     2.7230e-019
  378.2741     3.6520e-019
  378.2948     3.0720e-019
  378.3155     1.7240e-019
  378.3362     1.2110e-019
  378.3569     1.8500e-019
  378.3776     2.5090e-019
  378.3983     1.9630e-019
  378.4190     3.3710e-020
  378.4398    -7.4870e-020
  378.4605    -1.3970e-020
  378.4812     1.3210e-019
  378.5019     1.3260e-019
  378.5227    -2.6430e-020
  378.5434    -8.8260e-020
  378.5641    -3.0900e-020
  378.5849    -1.6960e-020
  378.6056    -8.9650e-020
  378.6263    -9.8980e-020
  378.6471     2.6840e-020
  378.6678     7.0670e-020
  378.6886    -3.7460e-020
  378.7093    -6.9610e-020
  378.7301     9.3650e-020
  378.7508     2.3390e-019
  378.7716     1.9190e-019
  378.7923     1.4940e-019
  378.8131     2.8220e-019
  378.8339     4.0510e-019
  378.8546     3.2020e-019
  378.8754     1.6740e-019
  378.8962     1.2230e-019
  378.9169     6.7280e-020
  378.9377    -8.3840e-020
  378.9585    -1.2000e-019
  378.9793     1.5270e-019
  379.0000     4.7160e-019
  379.0208     4.3390e-019
  379.0416     1.5730e-019
  379.0624     5.6010e-020
  379.0832     2.0900e-019
  379.1040     2.7090e-019
  379.1248     1.2820e-019
  379.1456     4.5030e-020
  379.1664     1.4330e-019
  379.1872     2.3190e-019
  379.2080     1.2480e-019
  379.2288    -7.9160e-020
  379.2496    -1.1420e-019
  379.2704     9.8280e-020
  379.2912     3.3990e-019
  379.3120     3.9850e-019
  379.3328     2.9130e-019
  379.3536     1.9410e-019
  379.3745     1.8090e-019
  379.3953     1.8990e-019
  379.4161     1.3110e-019
  379.4370     4.0140e-020
  379.4578    -2.8130e-020
  379.4786    -7.9790e-020
  379.4995    -1.5800e-019
  379.5203    -1.2740e-019
  379.5411     1.7000e-019
  379.5620     5.1340e-019
  379.5828     5.0000e-019
  379.6037     9.4440e-020
  379.6245    -2.6860e-019
  379.6454    -2.3740e-019
  379.6662     1.8240e-020
  379.6871     1.1380e-019
  379.7080     1.3070e-020
  379.7288     1.5110e-021
  379.7497     1.2590e-019
  379.7705     1.7370e-019
  379.7914     1.4680e-019
  379.8123     2.3740e-019
  379.8332     4.0730e-019
  379.8540     3.4120e-019
  379.8749    -2.1600e-020
  379.8958    -2.5950e-019
  379.9167    -1.2050e-019
  379.9375     1.0910e-019
  379.9584     1.0850e-019
  379.9793     9.8720e-020
  380.0002     3.1130e-019
  380.0211     4.7360e-019
  380.0420     2.5540e-019
  380.0629    -9.4880e-020
  380.0838    -6.0130e-020
  380.1047     3.3850e-019
  380.1256     5.2100e-019
  380.1465     3.2420e-019
  380.1674     1.1830e-019
  380.1883     1.2830e-019
  380.2092     1.5480e-019
  380.2302     2.4610e-020
  380.2511    -6.7600e-020
  380.2720     4.0470e-020
  380.2929     2.3580e-019
  380.3139     3.4190e-019
  380.3348     2.8250e-019
  380.3557     1.3070e-019
  380.3766     5.2170e-021
  380.3976    -1.4990e-020
  380.4185     8.1990e-020
  380.4394     1.9950e-019
  380.4604     2.9960e-019
  380.4813     3.8790e-019
  380.5023     3.8530e-019
  380.5232     2.2170e-019
  380.5442     1.8990e-020
  380.5651     8.7620e-020
  380.5861     3.7540e-019
  380.6070     4.5900e-019
  380.6280     1.6860e-019
  380.6490    -1.7400e-020
  380.6699     2.1010e-019
  380.6909     4.1690e-019
  380.7119     2.2000e-019
  380.7328    -1.0380e-019
  380.7538    -4.6690e-020
  380.7748     2.3000e-019
  380.7958     2.1310e-019
  380.8167    -1.2520e-020
  380.8377     6.5410e-020
  380.8587     4.6580e-019
  380.8797     7.2050e-019
  380.9007     6.0940e-019
  380.9217     4.2660e-019
  380.9427     3.9220e-019
  380.9637     3.3220e-019
  380.9847     1.1940e-019
  381.0057    -2.5460e-020
  381.0267     5.0260e-020
  381.0477     2.5960e-019
  381.0687     4.7770e-019
  381.0897     6.0460e-019
  381.1107     5.5470e-019
  381.1317     2.6940e-019
  381.1527    -1.5120e-021
  381.1738     4.9610e-020
  381.1948     2.6880e-019
  381.2158     2.2270e-019
  381.2368     1.1750e-020
  381.2579     1.1150e-019
  381.2789     5.7810e-019
  381.2999     7.8280e-019
  381.3210     3.6720e-019
  381.3420    -1.0800e-019
  381.3631    -6.4630e-020
  381.3841     3.0440e-019
  381.4052     4.6040e-019
  381.4262     3.8760e-019
  381.4472     4.9450e-019
  381.4683     7.0600e-019
  381.4894     6.7320e-019
  381.5104     4.3430e-019
  381.5315     3.4090e-019
  381.5525     4.0880e-019
  381.5736     2.7360e-019
  381.5946    -4.4420e-021
  381.6157    -2.5560e-020
  381.6368     2.6190e-019
  381.6579     3.7570e-019
  381.6789     1.5030e-019
  381.7000    -8.0340e-020
  381.7211    -4.2310e-020
  381.7422     9.0930e-020
  381.7633     1.0780e-019
  381.7843     1.1780e-019
  381.8054     2.0880e-019
  381.8265     2.0680e-019
  381.8476     2.4580e-021
  381.8687    -1.7020e-019
  381.8898     2.3120e-021
  381.9109     3.4450e-019
  381.9320     4.5480e-019
  381.9531     2.9820e-019
  381.9742     2.0640e-019
  381.9954     3.5460e-019
  382.0165     4.8440e-019
  382.0376     3.4720e-019
  382.0587     9.8930e-020
  382.0798    -4.2010e-020
  382.1009    -3.7210e-020
  382.1221    -5.9010e-020
  382.1432    -9.4750e-020
  382.1643     4.2310e-020
  382.1854     1.9200e-019
  382.2066     8.0490e-020
  382.2277    -1.0880e-019
  382.2489     7.4570e-020
  382.2700     4.5400e-019
  382.2912     4.3780e-019
  382.3123    -6.5920e-020
  382.3334    -3.7020e-019
  382.3546    -1.0910e-019
  382.3757     2.3450e-019
  382.3969     1.4140e-019
  382.4180    -1.4300e-019
  382.4392    -1.4690e-019
  382.4604     3.0780e-021
  382.4815    -5.0840e-020
  382.5027    -2.2300e-019
  382.5239    -2.0190e-019
  382.5450    -6.1950e-020
  382.5662    -2.3930e-020
  382.5874     4.0460e-020
  382.6086     2.7130e-019
  382.6298     3.9190e-019
  382.6509     1.9770e-019
  382.6721    -8.6770e-022
  382.6933     7.5930e-020
  382.7145     1.8780e-019
  382.7357     1.1090e-019
  382.7569     7.0350e-020
  382.7781     2.6650e-019
  382.7993     4.5720e-019
  382.8205     3.7000e-019
  382.8417     1.5910e-019
  382.8629    -1.6720e-020
  382.8841    -2.6810e-019
  382.9053    -4.7200e-019
  382.9265    -2.9900e-019
  382.9478     2.6880e-019
  382.9690     6.2750e-019
  382.9902     3.7530e-019
  383.0114    -1.6690e-020
  383.0327    -1.3480e-019
  383.0539    -1.2540e-019
  383.0751    -1.9420e-019
  383.0963    -1.6770e-019
  383.1176     5.1980e-020
  383.1388     1.3210e-019
  383.1600    -1.1970e-019
  383.1813    -2.8260e-019
  383.2025    -8.5100e-020
  383.2238     6.6130e-020
  383.2450    -7.7750e-020
  383.2663    -2.4600e-019
  383.2875    -1.7230e-019
  383.3088    -6.2090e-020
  383.3300    -6.3510e-020
  383.3513    -4.9650e-020
  383.3726     6.2570e-020
  383.3938     1.4840e-020
  383.4151    -2.2770e-019
  383.4364    -3.1160e-019
  383.4576    -4.6600e-020
  383.4789     2.9700e-019
  383.5002     4.4220e-019
  383.5215     4.1550e-019
  383.5427     3.0080e-019
  383.5640     1.6280e-019
  383.5853     1.6050e-019
  383.6066     4.1840e-019
  383.6279     6.1190e-019
  383.6492     4.1740e-019
  383.6705     1.4110e-019
  383.6918     2.1680e-019
  383.7131     5.1340e-019
  383.7344     5.1780e-019
  383.7557     1.8820e-019
  383.7770    -1.0130e-019
  383.7983    -2.1150e-019
  383.8196    -2.7370e-019
  383.8410    -2.1970e-019
  383.8623     3.7440e-020
  383.8836     8.4040e-020
  383.9049    -1.6240e-019
  383.9262    -1.8240e-019
  383.9476     2.9130e-019
  383.9689     5.6730e-019
  383.9902     1.9310e-020
  384.0115    -5.2980e-019
  384.0329    -2.4150e-019
  384.0542     4.4360e-019
  384.0756     3.7600e-019
  384.0969    -3.5680e-019
  384.1183    -6.8080e-019
  384.1396    -3.9550e-019
  384.1610    -2.0110e-019
  384.1823    -2.2870e-019
  384.2037    -4.1160e-020
  384.2250     3.2000e-019
  384.2464     2.1660e-019
  384.2678    -2.6940e-019
  384.2891    -2.8480e-019
  384.3105     2.2150e-019
  384.3318     4.0320e-019
  384.3532    -2.4960e-021
  384.3746    -3.5350e-019
  384.3960    -2.5770e-019
  384.4173    -9.8330e-020
  384.4387    -1.9530e-019
  384.4601    -2.3150e-019
  384.4815    -1.0240e-019
  384.5029    -1.4220e-019
